[{"RT":2033,"time": "2018-08-15 06:04:02pm", "schedule_type": "STATIC", "schedule_name": "random_13", "is_biased_choice":false,"side_choice": "LEFT", "trial_number":0,"observed_reward":1,"unobserved_reward":0},{"RT":3693,"time": "2018-08-15 06:04:06pm", "schedule_type": "STATIC", "schedule_name": "random_13", "is_biased_choice":false,"side_choice": "LEFT", "trial_number":1,"observed_reward":1,"unobserved_reward":0},{"RT":2497,"time": "2018-08-15 06:04:09pm", "schedule_type": "STATIC", "schedule_name": "random_13", "is_biased_choice":false,"side_choice": "LEFT", "trial_number":2,"observed_reward":1,"unobserved_reward":1},{"RT":2346,"time": "2018-08-15 06:04:11pm", "schedule_type": "STATIC", "schedule_name": "random_13", "is_biased_choice":false,"side_choice": "LEFT", "trial_number":3,"observed_reward":0,"unobserved_reward":0},{"RT":2310,"time": "2018-08-15 06:04:13pm", "schedule_type": "STATIC", "schedule_name": "random_13", "is_biased_choice":false,"side_choice": "LEFT", "trial_number":4,"observed_reward":1,"unobserved_reward":0},{"RT":2267,"time": "2018-08-15 06:04:15pm", "schedule_type": "STATIC", "schedule_name": "random_13", "is_biased_choice":false,"side_choice": "LEFT", "trial_number":5,"observed_reward":1,"unobserved_reward":0},{"RT":2390,"time": "2018-08-15 06:04:18pm", "schedule_type": "STATIC", "schedule_name": "random_13", "is_biased_choice":false,"side_choice": "LEFT", "trial_number":6,"observed_reward":1,"unobserved_reward":0},{"RT":2343,"time": "2018-08-15 06:04:20pm", "schedule_type": "STATIC", "schedule_name": "random_13", "is_biased_choice":false,"side_choice": "LEFT", "trial_number":7,"observed_reward":1,"unobserved_reward":1},{"RT":2228,"time": "2018-08-15 06:04:22pm", "schedule_type": "STATIC", "schedule_name": "random_13", "is_biased_choice":false,"side_choice": "LEFT", "trial_number":8,"observed_reward":1,"unobserved_reward":0},{"RT":2318,"time": "2018-08-15 06:04:25pm", "schedule_type": "STATIC", "schedule_name": "random_13", "is_biased_choice":false,"side_choice": "LEFT", "trial_number":9,"observed_reward":0,"unobserved_reward":0},{"RT":2421,"time": "2018-08-15 06:04:27pm", "schedule_type": "STATIC", "schedule_name": "random_13", "is_biased_choice":false,"side_choice": "LEFT", "trial_number":10,"observed_reward":0,"unobserved_reward":0},{"RT":2211,"time": "2018-08-15 06:04:29pm", "schedule_type": "STATIC", "schedule_name": "random_13", "is_biased_choice":false,"side_choice": "LEFT", "trial_number":11,"observed_reward":1,"unobserved_reward":0},{"RT":2237,"time": "2018-08-15 06:04:32pm", "schedule_type": "STATIC", "schedule_name": "random_13", "is_biased_choice":false,"side_choice": "LEFT", "trial_number":12,"observed_reward":0,"unobserved_reward":1},{"RT":2356,"time": "2018-08-15 06:04:34pm", "schedule_type": "STATIC", "schedule_name": "random_13", "is_biased_choice":true,"side_choice": "RIGHT", "trial_number":13,"observed_reward":0,"unobserved_reward":0},{"RT":2209,"time": "2018-08-15 06:04:36pm", "schedule_type": "STATIC", "schedule_name": "random_13", "is_biased_choice":true,"side_choice": "RIGHT", "trial_number":14,"observed_reward":0,"unobserved_reward":0},{"RT":2190,"time": "2018-08-15 06:04:38pm", "schedule_type": "STATIC", "schedule_name": "random_13", "is_biased_choice":false,"side_choice": "LEFT", "trial_number":15,"observed_reward":0,"unobserved_reward":0},{"RT":2226,"time": "2018-08-15 06:04:41pm", "schedule_type": "STATIC", "schedule_name": "random_13", "is_biased_choice":true,"side_choice": "RIGHT", "trial_number":16,"observed_reward":1,"unobserved_reward":0},{"RT":2534,"time": "2018-08-15 06:04:43pm", "schedule_type": "STATIC", "schedule_name": "random_13", "is_biased_choice":true,"side_choice": "RIGHT", "trial_number":17,"observed_reward":1,"unobserved_reward":0},{"RT":2453,"time": "2018-08-15 06:04:46pm", "schedule_type": "STATIC", "schedule_name": "random_13", "is_biased_choice":true,"side_choice": "RIGHT", "trial_number":18,"observed_reward":0,"unobserved_reward":0},{"RT":2127,"time": "2018-08-15 06:04:48pm", "schedule_type": "STATIC", "schedule_name": "random_13", "is_biased_choice":false,"side_choice": "LEFT", "trial_number":19,"observed_reward":1,"unobserved_reward":0},{"RT":2129,"time": "2018-08-15 06:04:50pm", "schedule_type": "STATIC", "schedule_name": "random_13", "is_biased_choice":false,"side_choice": "LEFT", "trial_number":20,"observed_reward":0,"unobserved_reward":0},{"RT":2467,"time": "2018-08-15 06:04:52pm", "schedule_type": "STATIC", "schedule_name": "random_13", "is_biased_choice":false,"side_choice": "LEFT", "trial_number":21,"observed_reward":0,"unobserved_reward":0},{"RT":2342,"time": "2018-08-15 06:04:55pm", "schedule_type": "STATIC", "schedule_name": "random_13", "is_biased_choice":false,"side_choice": "LEFT", "trial_number":22,"observed_reward":0,"unobserved_reward":0},{"RT":2323,"time": "2018-08-15 06:04:57pm", "schedule_type": "STATIC", "schedule_name": "random_13", "is_biased_choice":true,"side_choice": "RIGHT", "trial_number":23,"observed_reward":1,"unobserved_reward":0},{"RT":2623,"time": "2018-08-15 06:05:00pm", "schedule_type": "STATIC", "schedule_name": "random_13", "is_biased_choice":true,"side_choice": "RIGHT", "trial_number":24,"observed_reward":0,"unobserved_reward":0},{"RT":2457,"time": "2018-08-15 06:05:02pm", "schedule_type": "STATIC", "schedule_name": "random_13", "is_biased_choice":false,"side_choice": "LEFT", "trial_number":25,"observed_reward":0,"unobserved_reward":0},{"RT":2242,"time": "2018-08-15 06:05:04pm", "schedule_type": "STATIC", "schedule_name": "random_13", "is_biased_choice":false,"side_choice": "LEFT", "trial_number":26,"observed_reward":0,"unobserved_reward":1},{"RT":10668,"time": "2018-08-15 06:05:15pm", "schedule_type": "STATIC", "schedule_name": "random_13", "is_biased_choice":true,"side_choice": "RIGHT", "trial_number":27,"observed_reward":0,"unobserved_reward":0},{"RT":2281,"time": "2018-08-15 06:05:17pm", "schedule_type": "STATIC", "schedule_name": "random_13", "is_biased_choice":false,"side_choice": "LEFT", "trial_number":28,"observed_reward":0,"unobserved_reward":0},{"RT":2133,"time": "2018-08-15 06:05:19pm", "schedule_type": "STATIC", "schedule_name": "random_13", "is_biased_choice":false,"side_choice": "LEFT", "trial_number":29,"observed_reward":1,"unobserved_reward":0},{"RT":2230,"time": "2018-08-15 06:05:22pm", "schedule_type": "STATIC", "schedule_name": "random_13", "is_biased_choice":false,"side_choice": "LEFT", "trial_number":30,"observed_reward":1,"unobserved_reward":1},{"RT":2136,"time": "2018-08-15 06:05:24pm", "schedule_type": "STATIC", "schedule_name": "random_13", "is_biased_choice":false,"side_choice": "LEFT", "trial_number":31,"observed_reward":0,"unobserved_reward":0},{"RT":2136,"time": "2018-08-15 06:05:26pm", "schedule_type": "STATIC", "schedule_name": "random_13", "is_biased_choice":false,"side_choice": "LEFT", "trial_number":32,"observed_reward":0,"unobserved_reward":0},{"RT":2561,"time": "2018-08-15 06:05:28pm", "schedule_type": "STATIC", "schedule_name": "random_13", "is_biased_choice":false,"side_choice": "LEFT", "trial_number":33,"observed_reward":1,"unobserved_reward":1},{"RT":2165,"time": "2018-08-15 06:05:31pm", "schedule_type": "STATIC", "schedule_name": "random_13", "is_biased_choice":false,"side_choice": "LEFT", "trial_number":34,"observed_reward":1,"unobserved_reward":1},{"RT":2179,"time": "2018-08-15 06:05:33pm", "schedule_type": "STATIC", "schedule_name": "random_13", "is_biased_choice":false,"side_choice": "LEFT", "trial_number":35,"observed_reward":0,"unobserved_reward":0},{"RT":2532,"time": "2018-08-15 06:05:35pm", "schedule_type": "STATIC", "schedule_name": "random_13", "is_biased_choice":true,"side_choice": "RIGHT", "trial_number":36,"observed_reward":0,"unobserved_reward":0},{"RT":2163,"time": "2018-08-15 06:05:37pm", "schedule_type": "STATIC", "schedule_name": "random_13", "is_biased_choice":true,"side_choice": "RIGHT", "trial_number":37,"observed_reward":1,"unobserved_reward":0},{"RT":2324,"time": "2018-08-15 06:05:40pm", "schedule_type": "STATIC", "schedule_name": "random_13", "is_biased_choice":true,"side_choice": "RIGHT", "trial_number":38,"observed_reward":1,"unobserved_reward":1},{"RT":2850,"time": "2018-08-15 06:05:43pm", "schedule_type": "STATIC", "schedule_name": "random_13", "is_biased_choice":false,"side_choice": "LEFT", "trial_number":39,"observed_reward":0,"unobserved_reward":1},{"RT":2272,"time": "2018-08-15 06:05:45pm", "schedule_type": "STATIC", "schedule_name": "random_13", "is_biased_choice":false,"side_choice": "LEFT", "trial_number":40,"observed_reward":1,"unobserved_reward":0},{"RT":2309,"time": "2018-08-15 06:05:47pm", "schedule_type": "STATIC", "schedule_name": "random_13", "is_biased_choice":false,"side_choice": "LEFT", "trial_number":41,"observed_reward":0,"unobserved_reward":0},{"RT":2298,"time": "2018-08-15 06:05:50pm", "schedule_type": "STATIC", "schedule_name": "random_13", "is_biased_choice":true,"side_choice": "RIGHT", "trial_number":42,"observed_reward":0,"unobserved_reward":0},{"RT":2269,"time": "2018-08-15 06:05:52pm", "schedule_type": "STATIC", "schedule_name": "random_13", "is_biased_choice":false,"side_choice": "LEFT", "trial_number":43,"observed_reward":1,"unobserved_reward":1},{"RT":2267,"time": "2018-08-15 06:05:54pm", "schedule_type": "STATIC", "schedule_name": "random_13", "is_biased_choice":false,"side_choice": "LEFT", "trial_number":44,"observed_reward":0,"unobserved_reward":1},{"RT":2455,"time": "2018-08-15 06:05:56pm", "schedule_type": "STATIC", "schedule_name": "random_13", "is_biased_choice":true,"side_choice": "RIGHT", "trial_number":45,"observed_reward":0,"unobserved_reward":0},{"RT":2310,"time": "2018-08-15 06:05:59pm", "schedule_type": "STATIC", "schedule_name": "random_13", "is_biased_choice":false,"side_choice": "LEFT", "trial_number":46,"observed_reward":0,"unobserved_reward":0},{"RT":2428,"time": "2018-08-15 06:06:01pm", "schedule_type": "STATIC", "schedule_name": "random_13", "is_biased_choice":false,"side_choice": "LEFT", "trial_number":47,"observed_reward":0,"unobserved_reward":0},{"RT":2238,"time": "2018-08-15 06:06:03pm", "schedule_type": "STATIC", "schedule_name": "random_13", "is_biased_choice":false,"side_choice": "LEFT", "trial_number":48,"observed_reward":0,"unobserved_reward":1},{"RT":2366,"time": "2018-08-15 06:06:06pm", "schedule_type": "STATIC", "schedule_name": "random_13", "is_biased_choice":false,"side_choice": "LEFT", "trial_number":49,"observed_reward":0,"unobserved_reward":0},{"RT":2578,"time": "2018-08-15 06:06:08pm", "schedule_type": "STATIC", "schedule_name": "random_13", "is_biased_choice":false,"side_choice": "LEFT", "trial_number":50,"observed_reward":0,"unobserved_reward":0},{"RT":2236,"time": "2018-08-15 06:06:11pm", "schedule_type": "STATIC", "schedule_name": "random_13", "is_biased_choice":false,"side_choice": "LEFT", "trial_number":51,"observed_reward":0,"unobserved_reward":0},{"RT":2452,"time": "2018-08-15 06:06:13pm", "schedule_type": "STATIC", "schedule_name": "random_13", "is_biased_choice":false,"side_choice": "LEFT", "trial_number":52,"observed_reward":1,"unobserved_reward":0},{"RT":2171,"time": "2018-08-15 06:06:15pm", "schedule_type": "STATIC", "schedule_name": "random_13", "is_biased_choice":false,"side_choice": "LEFT", "trial_number":53,"observed_reward":0,"unobserved_reward":0},{"RT":2200,"time": "2018-08-15 06:06:17pm", "schedule_type": "STATIC", "schedule_name": "random_13", "is_biased_choice":true,"side_choice": "RIGHT", "trial_number":54,"observed_reward":0,"unobserved_reward":0},{"RT":2269,"time": "2018-08-15 06:06:20pm", "schedule_type": "STATIC", "schedule_name": "random_13", "is_biased_choice":true,"side_choice": "RIGHT", "trial_number":55,"observed_reward":0,"unobserved_reward":0},{"RT":2284,"time": "2018-08-15 06:06:22pm", "schedule_type": "STATIC", "schedule_name": "random_13", "is_biased_choice":true,"side_choice": "RIGHT", "trial_number":56,"observed_reward":0,"unobserved_reward":0},{"RT":2231,"time": "2018-08-15 06:06:24pm", "schedule_type": "STATIC", "schedule_name": "random_13", "is_biased_choice":true,"side_choice": "RIGHT", "trial_number":57,"observed_reward":0,"unobserved_reward":0},{"RT":2180,"time": "2018-08-15 06:06:26pm", "schedule_type": "STATIC", "schedule_name": "random_13", "is_biased_choice":false,"side_choice": "LEFT", "trial_number":58,"observed_reward":0,"unobserved_reward":0},{"RT":2163,"time": "2018-08-15 06:06:29pm", "schedule_type": "STATIC", "schedule_name": "random_13", "is_biased_choice":true,"side_choice": "RIGHT", "trial_number":59,"observed_reward":0,"unobserved_reward":1},{"RT":2264,"time": "2018-08-15 06:06:31pm", "schedule_type": "STATIC", "schedule_name": "random_13", "is_biased_choice":true,"side_choice": "RIGHT", "trial_number":60,"observed_reward":0,"unobserved_reward":0},{"RT":2186,"time": "2018-08-15 06:06:33pm", "schedule_type": "STATIC", "schedule_name": "random_13", "is_biased_choice":false,"side_choice": "LEFT", "trial_number":61,"observed_reward":0,"unobserved_reward":0},{"RT":2252,"time": "2018-08-15 06:06:35pm", "schedule_type": "STATIC", "schedule_name": "random_13", "is_biased_choice":false,"side_choice": "LEFT", "trial_number":62,"observed_reward":0,"unobserved_reward":1},{"RT":2538,"time": "2018-08-15 06:06:38pm", "schedule_type": "STATIC", "schedule_name": "random_13", "is_biased_choice":true,"side_choice": "RIGHT", "trial_number":63,"observed_reward":0,"unobserved_reward":0},{"RT":2184,"time": "2018-08-15 06:06:40pm", "schedule_type": "STATIC", "schedule_name": "random_13", "is_biased_choice":true,"side_choice": "RIGHT", "trial_number":64,"observed_reward":0,"unobserved_reward":0},{"RT":2493,"time": "2018-08-15 06:06:43pm", "schedule_type": "STATIC", "schedule_name": "random_13", "is_biased_choice":false,"side_choice": "LEFT", "trial_number":65,"observed_reward":0,"unobserved_reward":0},{"RT":2236,"time": "2018-08-15 06:06:45pm", "schedule_type": "STATIC", "schedule_name": "random_13", "is_biased_choice":true,"side_choice": "RIGHT", "trial_number":66,"observed_reward":0,"unobserved_reward":0},{"RT":2517,"time": "2018-08-15 06:06:47pm", "schedule_type": "STATIC", "schedule_name": "random_13", "is_biased_choice":false,"side_choice": "LEFT", "trial_number":67,"observed_reward":0,"unobserved_reward":0},{"RT":2113,"time": "2018-08-15 06:06:49pm", "schedule_type": "STATIC", "schedule_name": "random_13", "is_biased_choice":false,"side_choice": "LEFT", "trial_number":68,"observed_reward":0,"unobserved_reward":0},{"RT":2211,"time": "2018-08-15 06:06:52pm", "schedule_type": "STATIC", "schedule_name": "random_13", "is_biased_choice":false,"side_choice": "LEFT", "trial_number":69,"observed_reward":0,"unobserved_reward":0},{"RT":2450,"time": "2018-08-15 06:06:54pm", "schedule_type": "STATIC", "schedule_name": "random_13", "is_biased_choice":false,"side_choice": "LEFT", "trial_number":70,"observed_reward":0,"unobserved_reward":1},{"RT":2618,"time": "2018-08-15 06:06:57pm", "schedule_type": "STATIC", "schedule_name": "random_13", "is_biased_choice":true,"side_choice": "RIGHT", "trial_number":71,"observed_reward":1,"unobserved_reward":0},{"RT":2286,"time": "2018-08-15 06:06:59pm", "schedule_type": "STATIC", "schedule_name": "random_13", "is_biased_choice":true,"side_choice": "RIGHT", "trial_number":72,"observed_reward":1,"unobserved_reward":1},{"RT":2309,"time": "2018-08-15 06:07:01pm", "schedule_type": "STATIC", "schedule_name": "random_13", "is_biased_choice":true,"side_choice": "RIGHT", "trial_number":73,"observed_reward":0,"unobserved_reward":0},{"RT":2194,"time": "2018-08-15 06:07:03pm", "schedule_type": "STATIC", "schedule_name": "random_13", "is_biased_choice":false,"side_choice": "LEFT", "trial_number":74,"observed_reward":0,"unobserved_reward":0},{"RT":2170,"time": "2018-08-15 06:07:06pm", "schedule_type": "STATIC", "schedule_name": "random_13", "is_biased_choice":false,"side_choice": "LEFT", "trial_number":75,"observed_reward":0,"unobserved_reward":1},{"RT":2349,"time": "2018-08-15 06:07:08pm", "schedule_type": "STATIC", "schedule_name": "random_13", "is_biased_choice":false,"side_choice": "LEFT", "trial_number":76,"observed_reward":0,"unobserved_reward":0},{"RT":2346,"time": "2018-08-15 06:07:10pm", "schedule_type": "STATIC", "schedule_name": "random_13", "is_biased_choice":true,"side_choice": "RIGHT", "trial_number":77,"observed_reward":0,"unobserved_reward":0},{"RT":2303,"time": "2018-08-15 06:07:13pm", "schedule_type": "STATIC", "schedule_name": "random_13", "is_biased_choice":true,"side_choice": "RIGHT", "trial_number":78,"observed_reward":0,"unobserved_reward":0},{"RT":2135,"time": "2018-08-15 06:07:15pm", "schedule_type": "STATIC", "schedule_name": "random_13", "is_biased_choice":false,"side_choice": "LEFT", "trial_number":79,"observed_reward":0,"unobserved_reward":0},{"RT":2190,"time": "2018-08-15 06:07:17pm", "schedule_type": "STATIC", "schedule_name": "random_13", "is_biased_choice":false,"side_choice": "LEFT", "trial_number":80,"observed_reward":0,"unobserved_reward":0},{"RT":2172,"time": "2018-08-15 06:07:19pm", "schedule_type": "STATIC", "schedule_name": "random_13", "is_biased_choice":false,"side_choice": "LEFT", "trial_number":81,"observed_reward":1,"unobserved_reward":1},{"RT":2209,"time": "2018-08-15 06:07:21pm", "schedule_type": "STATIC", "schedule_name": "random_13", "is_biased_choice":false,"side_choice": "LEFT", "trial_number":82,"observed_reward":0,"unobserved_reward":1},{"RT":2213,"time": "2018-08-15 06:07:24pm", "schedule_type": "STATIC", "schedule_name": "random_13", "is_biased_choice":false,"side_choice": "LEFT", "trial_number":83,"observed_reward":0,"unobserved_reward":0},{"RT":2285,"time": "2018-08-15 06:07:26pm", "schedule_type": "STATIC", "schedule_name": "random_13", "is_biased_choice":false,"side_choice": "LEFT", "trial_number":84,"observed_reward":1,"unobserved_reward":0},{"RT":2257,"time": "2018-08-15 06:07:28pm", "schedule_type": "STATIC", "schedule_name": "random_13", "is_biased_choice":false,"side_choice": "LEFT", "trial_number":85,"observed_reward":0,"unobserved_reward":0},{"RT":2603,"time": "2018-08-15 06:07:31pm", "schedule_type": "STATIC", "schedule_name": "random_13", "is_biased_choice":false,"side_choice": "LEFT", "trial_number":86,"observed_reward":0,"unobserved_reward":0},{"RT":2274,"time": "2018-08-15 06:07:33pm", "schedule_type": "STATIC", "schedule_name": "random_13", "is_biased_choice":false,"side_choice": "LEFT", "trial_number":87,"observed_reward":1,"unobserved_reward":0},{"RT":2512,"time": "2018-08-15 06:07:35pm", "schedule_type": "STATIC", "schedule_name": "random_13", "is_biased_choice":false,"side_choice": "LEFT", "trial_number":88,"observed_reward":0,"unobserved_reward":0},{"RT":2363,"time": "2018-08-15 06:07:38pm", "schedule_type": "STATIC", "schedule_name": "random_13", "is_biased_choice":true,"side_choice": "RIGHT", "trial_number":89,"observed_reward":0,"unobserved_reward":1},{"RT":2415,"time": "2018-08-15 06:07:40pm", "schedule_type": "STATIC", "schedule_name": "random_13", "is_biased_choice":false,"side_choice": "LEFT", "trial_number":90,"observed_reward":0,"unobserved_reward":1},{"RT":2266,"time": "2018-08-15 06:07:43pm", "schedule_type": "STATIC", "schedule_name": "random_13", "is_biased_choice":true,"side_choice": "RIGHT", "trial_number":91,"observed_reward":0,"unobserved_reward":0},{"RT":2228,"time": "2018-08-15 06:07:45pm", "schedule_type": "STATIC", "schedule_name": "random_13", "is_biased_choice":true,"side_choice": "RIGHT", "trial_number":92,"observed_reward":0,"unobserved_reward":0},{"RT":2319,"time": "2018-08-15 06:07:47pm", "schedule_type": "STATIC", "schedule_name": "random_13", "is_biased_choice":true,"side_choice": "RIGHT", "trial_number":93,"observed_reward":1,"unobserved_reward":0},{"RT":2335,"time": "2018-08-15 06:07:49pm", "schedule_type": "STATIC", "schedule_name": "random_13", "is_biased_choice":true,"side_choice": "RIGHT", "trial_number":94,"observed_reward":0,"unobserved_reward":0},{"RT":2241,"time": "2018-08-15 06:07:52pm", "schedule_type": "STATIC", "schedule_name": "random_13", "is_biased_choice":true,"side_choice": "RIGHT", "trial_number":95,"observed_reward":0,"unobserved_reward":0},{"RT":2203,"time": "2018-08-15 06:07:54pm", "schedule_type": "STATIC", "schedule_name": "random_13", "is_biased_choice":false,"side_choice": "LEFT", "trial_number":96,"observed_reward":1,"unobserved_reward":0},{"RT":2250,"time": "2018-08-15 06:07:56pm", "schedule_type": "STATIC", "schedule_name": "random_13", "is_biased_choice":false,"side_choice": "LEFT", "trial_number":97,"observed_reward":0,"unobserved_reward":0},{"RT":2216,"time": "2018-08-15 06:07:58pm", "schedule_type": "STATIC", "schedule_name": "random_13", "is_biased_choice":false,"side_choice": "LEFT", "trial_number":98,"observed_reward":0,"unobserved_reward":0},{"RT":2248,"time": "2018-08-15 06:08:01pm", "schedule_type": "STATIC", "schedule_name": "random_13", "is_biased_choice":false,"side_choice": "LEFT", "trial_number":99,"observed_reward":0,"unobserved_reward":0},