trial_number, time, schedule_type, schedule_name, is_biased_choice, side_choice, RT, observed_reward, unobserved_reward, biased_reward, unbiased_reward
0,2018-08-15 03:27:48pm, STATIC, random_13, true, LEFT, 5809, 0, 1, 0, 1
1,2018-08-15 03:27:53pm, STATIC, random_13, false, RIGHT, 5097, 1, 0, 0, 1
2,2018-08-15 03:27:57pm, STATIC, random_13, false, RIGHT, 3431, 1, 1, 1, 1
3,2018-08-15 03:28:02pm, STATIC, random_13, true, LEFT, 4843, 0, 0, 0, 0
4,2018-08-15 03:28:13pm, STATIC, random_13, false, RIGHT, 11006, 1, 0, 0, 1
5,2018-08-15 03:28:18pm, STATIC, random_13, false, RIGHT, 5143, 1, 0, 0, 1
6,2018-08-15 03:28:22pm, STATIC, random_13, false, RIGHT, 4465, 1, 0, 0, 1
7,2018-08-15 03:28:26pm, STATIC, random_13, false, RIGHT, 3359, 1, 1, 1, 1
8,2018-08-15 03:28:31pm, STATIC, random_13, false, RIGHT, 5134, 1, 0, 0, 1
9,2018-08-15 03:28:33pm, STATIC, random_13, false, RIGHT, 2747, 0, 0, 0, 0
10,2018-08-15 03:28:37pm, STATIC, random_13, false, RIGHT, 3615, 0, 0, 0, 0
11,2018-08-15 03:28:41pm, STATIC, random_13, false, RIGHT, 3555, 1, 0, 0, 1
12,2018-08-15 03:28:47pm, STATIC, random_13, false, RIGHT, 5892, 0, 1, 1, 0
13,2018-08-15 03:28:51pm, STATIC, random_13, true, LEFT, 4247, 0, 0, 0, 0
14,2018-08-15 03:28:56pm, STATIC, random_13, false, RIGHT, 5107, 0, 0, 0, 0
15,2018-08-15 03:29:01pm, STATIC, random_13, false, RIGHT, 4637, 0, 0, 0, 0
16,2018-08-15 03:29:07pm, STATIC, random_13, false, RIGHT, 6351, 0, 1, 1, 0
17,2018-08-15 03:29:13pm, STATIC, random_13, false, RIGHT, 4394, 0, 1, 1, 0
18,2018-08-15 03:29:16pm, STATIC, random_13, false, RIGHT, 3977, 0, 0, 0, 0
19,2018-08-15 03:29:20pm, STATIC, random_13, true, LEFT, 4832, 0, 1, 0, 1
20,2018-08-15 03:29:25pm, STATIC, random_13, false, RIGHT, 4730, 0, 0, 0, 0
21,2018-08-15 03:29:30pm, STATIC, random_13, false, RIGHT, 4745, 0, 0, 0, 0
22,2018-08-15 03:29:34pm, STATIC, random_13, false, RIGHT, 4126, 0, 0, 0, 0
23,2018-08-15 03:29:38pm, STATIC, random_13, false, RIGHT, 4213, 0, 1, 1, 0
24,2018-08-15 03:29:42pm, STATIC, random_13, false, RIGHT, 4461, 0, 0, 0, 0
25,2018-08-15 03:29:46pm, STATIC, random_13, false, RIGHT, 3511, 0, 0, 0, 0
26,2018-08-15 03:29:50pm, STATIC, random_13, false, RIGHT, 3672, 0, 1, 1, 0
27,2018-08-15 03:29:54pm, STATIC, random_13, true, LEFT, 4472, 0, 0, 0, 0
28,2018-08-15 03:29:58pm, STATIC, random_13, false, RIGHT, 3782, 0, 0, 0, 0
29,2018-08-15 03:30:03pm, STATIC, random_13, false, RIGHT, 5594, 1, 0, 0, 1
30,2018-08-15 03:30:06pm, STATIC, random_13, false, RIGHT, 3000, 1, 1, 1, 1
31,2018-08-15 03:30:11pm, STATIC, random_13, false, RIGHT, 4812, 0, 0, 0, 0
32,2018-08-15 03:30:15pm, STATIC, random_13, false, RIGHT, 3828, 0, 0, 0, 0
33,2018-08-15 03:30:19pm, STATIC, random_13, false, RIGHT, 3528, 1, 1, 1, 1
34,2018-08-15 03:30:23pm, STATIC, random_13, false, RIGHT, 4024, 1, 1, 1, 1
35,2018-08-15 03:30:27pm, STATIC, random_13, false, RIGHT, 3983, 0, 0, 0, 0
36,2018-08-15 03:30:31pm, STATIC, random_13, false, RIGHT, 3950, 0, 0, 0, 0
37,2018-08-15 03:30:34pm, STATIC, random_13, false, RIGHT, 3882, 0, 1, 1, 0
38,2018-08-15 03:30:38pm, STATIC, random_13, false, RIGHT, 3911, 1, 1, 1, 1
39,2018-08-15 03:30:43pm, STATIC, random_13, false, RIGHT, 4240, 0, 1, 1, 0
40,2018-08-15 03:30:46pm, STATIC, random_13, false, RIGHT, 3447, 1, 0, 0, 1
41,2018-08-15 03:30:50pm, STATIC, random_13, false, RIGHT, 3603, 0, 0, 0, 0
42,2018-08-15 03:30:53pm, STATIC, random_13, false, RIGHT, 3538, 0, 0, 0, 0
43,2018-08-15 03:30:57pm, STATIC, random_13, false, RIGHT, 3813, 1, 1, 1, 1
44,2018-08-15 03:31:01pm, STATIC, random_13, false, RIGHT, 3614, 0, 1, 1, 0
45,2018-08-15 03:31:04pm, STATIC, random_13, false, RIGHT, 3511, 0, 0, 0, 0
46,2018-08-15 03:31:08pm, STATIC, random_13, false, RIGHT, 3883, 0, 0, 0, 0
47,2018-08-15 03:31:12pm, STATIC, random_13, false, RIGHT, 3898, 0, 0, 0, 0
48,2018-08-15 03:31:15pm, STATIC, random_13, false, RIGHT, 3317, 0, 1, 1, 0
49,2018-08-15 03:31:19pm, STATIC, random_13, false, RIGHT, 3507, 0, 0, 0, 0
50,2018-08-15 03:31:22pm, STATIC, random_13, true, LEFT, 3734, 0, 0, 0, 0
51,2018-08-15 03:31:26pm, STATIC, random_13, false, RIGHT, 3378, 0, 0, 0, 0
52,2018-08-15 03:31:30pm, STATIC, random_13, false, RIGHT, 3783, 1, 0, 0, 1
53,2018-08-15 03:31:34pm, STATIC, random_13, false, RIGHT, 4160, 0, 0, 0, 0
54,2018-08-15 03:31:38pm, STATIC, random_13, false, RIGHT, 3901, 0, 0, 0, 0
55,2018-08-15 03:31:42pm, STATIC, random_13, false, RIGHT, 4037, 0, 0, 0, 0
56,2018-08-15 03:31:45pm, STATIC, random_13, false, RIGHT, 3703, 0, 0, 0, 0
57,2018-08-15 03:31:49pm, STATIC, random_13, false, RIGHT, 3585, 0, 0, 0, 0
58,2018-08-15 03:31:52pm, STATIC, random_13, false, RIGHT, 3326, 0, 0, 0, 0
59,2018-08-15 03:31:56pm, STATIC, random_13, false, RIGHT, 3236, 1, 0, 0, 1
60,2018-08-15 03:31:59pm, STATIC, random_13, false, RIGHT, 3670, 0, 0, 0, 0
61,2018-08-15 03:32:03pm, STATIC, random_13, false, RIGHT, 3445, 0, 0, 0, 0
62,2018-08-15 03:32:06pm, STATIC, random_13, false, RIGHT, 3649, 0, 1, 1, 0
63,2018-08-15 03:32:10pm, STATIC, random_13, false, RIGHT, 3446, 0, 0, 0, 0
64,2018-08-15 03:32:13pm, STATIC, random_13, false, RIGHT, 3570, 0, 0, 0, 0
65,2018-08-15 03:32:17pm, STATIC, random_13, false, RIGHT, 3606, 0, 0, 0, 0
66,2018-08-15 03:32:20pm, STATIC, random_13, false, RIGHT, 3234, 0, 0, 0, 0
67,2018-08-15 03:32:23pm, STATIC, random_13, false, RIGHT, 3285, 0, 0, 0, 0
68,2018-08-15 03:32:27pm, STATIC, random_13, false, RIGHT, 3713, 0, 0, 0, 0
69,2018-08-15 03:32:31pm, STATIC, random_13, false, RIGHT, 3361, 0, 0, 0, 0
70,2018-08-15 03:32:35pm, STATIC, random_13, false, RIGHT, 4793, 0, 1, 1, 0
71,2018-08-15 03:32:39pm, STATIC, random_13, false, RIGHT, 3200, 0, 1, 1, 0
72,2018-08-15 03:32:44pm, STATIC, random_13, false, RIGHT, 5033, 1, 1, 1, 1
73,2018-08-15 03:32:47pm, STATIC, random_13, false, RIGHT, 3548, 0, 0, 0, 0
74,2018-08-15 03:32:50pm, STATIC, random_13, false, RIGHT, 3288, 0, 0, 0, 0
75,2018-08-15 03:32:54pm, STATIC, random_13, false, RIGHT, 3521, 0, 1, 1, 0
76,2018-08-15 03:32:57pm, STATIC, random_13, false, RIGHT, 3586, 0, 0, 0, 0
77,2018-08-15 03:33:01pm, STATIC, random_13, false, RIGHT, 3121, 0, 0, 0, 0
78,2018-08-15 03:33:04pm, STATIC, random_13, false, RIGHT, 3351, 0, 0, 0, 0
79,2018-08-15 03:33:07pm, STATIC, random_13, false, RIGHT, 3192, 0, 0, 0, 0
80,2018-08-15 03:33:12pm, STATIC, random_13, false, RIGHT, 4359, 0, 0, 0, 0
81,2018-08-15 03:33:15pm, STATIC, random_13, false, RIGHT, 3439, 1, 1, 1, 1
82,2018-08-15 03:33:19pm, STATIC, random_13, false, RIGHT, 3938, 0, 1, 1, 0
83,2018-08-15 03:33:23pm, STATIC, random_13, false, RIGHT, 4190, 0, 0, 0, 0
84,2018-08-15 03:33:26pm, STATIC, random_13, false, RIGHT, 3380, 1, 0, 0, 1
85,2018-08-15 03:33:30pm, STATIC, random_13, false, RIGHT, 3468, 0, 0, 0, 0
86,2018-08-15 03:33:34pm, STATIC, random_13, false, RIGHT, 3808, 0, 0, 0, 0
87,2018-08-15 03:33:38pm, STATIC, random_13, false, RIGHT, 3783, 1, 0, 0, 1
88,2018-08-15 03:33:41pm, STATIC, random_13, false, RIGHT, 3484, 0, 0, 0, 0
89,2018-08-15 03:33:44pm, STATIC, random_13, false, RIGHT, 3207, 1, 0, 0, 1
90,2018-08-15 03:33:50pm, STATIC, random_13, false, RIGHT, 6266, 0, 1, 1, 0
91,2018-08-15 03:33:54pm, STATIC, random_13, false, RIGHT, 3599, 0, 0, 0, 0
92,2018-08-15 03:33:57pm, STATIC, random_13, false, RIGHT, 3047, 0, 0, 0, 0
93,2018-08-15 03:34:01pm, STATIC, random_13, false, RIGHT, 3457, 0, 1, 1, 0
94,2018-08-15 03:34:04pm, STATIC, random_13, false, RIGHT, 3495, 0, 0, 0, 0
95,2018-08-15 03:34:08pm, STATIC, random_13, false, RIGHT, 3536, 0, 0, 0, 0
96,2018-08-15 03:34:12pm, STATIC, random_13, false, RIGHT, 3970, 1, 0, 0, 1
97,2018-08-15 03:34:15pm, STATIC, random_13, false, RIGHT, 3604, 0, 0, 0, 0
98,2018-08-15 03:34:19pm, STATIC, random_13, false, RIGHT, 3744, 0, 0, 0, 0
99,2018-08-15 03:34:23pm, STATIC, random_13, false, RIGHT, 3809, 0, 0, 0, 0
