[{"RT":10661,"time": "2018-08-15 01:42:45pm", "schedule_type": "STATIC", "schedule_name": "random_13", "is_biased_choice":true,"side_choice": "LEFT", "trial_number":0,"observed_reward":0,"unobserved_reward":1},{"RT":7007,"time": "2018-08-15 01:42:52pm", "schedule_type": "STATIC", "schedule_name": "random_13", "is_biased_choice":false,"side_choice": "RIGHT", "trial_number":1,"observed_reward":1,"unobserved_reward":0},{"RT":8966,"time": "2018-08-15 01:43:01pm", "schedule_type": "STATIC", "schedule_name": "random_13", "is_biased_choice":false,"side_choice": "RIGHT", "trial_number":2,"observed_reward":1,"unobserved_reward":1},{"RT":6105,"time": "2018-08-15 01:43:07pm", "schedule_type": "STATIC", "schedule_name": "random_13", "is_biased_choice":false,"side_choice": "RIGHT", "trial_number":3,"observed_reward":0,"unobserved_reward":0},{"RT":5000,"time": "2018-08-15 01:43:11pm", "schedule_type": "STATIC", "schedule_name": "random_13", "is_biased_choice":true,"side_choice": "LEFT", "trial_number":4,"observed_reward":0,"unobserved_reward":1},{"RT":3215,"time": "2018-08-15 01:43:15pm", "schedule_type": "STATIC", "schedule_name": "random_13", "is_biased_choice":false,"side_choice": "RIGHT", "trial_number":5,"observed_reward":1,"unobserved_reward":0},{"RT":7480,"time": "2018-08-15 01:43:22pm", "schedule_type": "STATIC", "schedule_name": "random_13", "is_biased_choice":false,"side_choice": "RIGHT", "trial_number":6,"observed_reward":1,"unobserved_reward":0},{"RT":3930,"time": "2018-08-15 01:43:26pm", "schedule_type": "STATIC", "schedule_name": "random_13", "is_biased_choice":true,"side_choice": "LEFT", "trial_number":7,"observed_reward":1,"unobserved_reward":1},{"RT":4542,"time": "2018-08-15 01:43:31pm", "schedule_type": "STATIC", "schedule_name": "random_13", "is_biased_choice":false,"side_choice": "RIGHT", "trial_number":8,"observed_reward":1,"unobserved_reward":0},{"RT":3674,"time": "2018-08-15 01:43:34pm", "schedule_type": "STATIC", "schedule_name": "random_13", "is_biased_choice":false,"side_choice": "RIGHT", "trial_number":9,"observed_reward":0,"unobserved_reward":0},{"RT":3126,"time": "2018-08-15 01:43:38pm", "schedule_type": "STATIC", "schedule_name": "random_13", "is_biased_choice":true,"side_choice": "LEFT", "trial_number":10,"observed_reward":0,"unobserved_reward":0},{"RT":4344,"time": "2018-08-15 01:43:42pm", "schedule_type": "STATIC", "schedule_name": "random_13", "is_biased_choice":false,"side_choice": "RIGHT", "trial_number":11,"observed_reward":1,"unobserved_reward":0},{"RT":3496,"time": "2018-08-15 01:43:46pm", "schedule_type": "STATIC", "schedule_name": "random_13", "is_biased_choice":true,"side_choice": "LEFT", "trial_number":12,"observed_reward":1,"unobserved_reward":0},{"RT":3672,"time": "2018-08-15 01:43:49pm", "schedule_type": "STATIC", "schedule_name": "random_13", "is_biased_choice":false,"side_choice": "RIGHT", "trial_number":13,"observed_reward":0,"unobserved_reward":0},{"RT":3928,"time": "2018-08-15 01:43:53pm", "schedule_type": "STATIC", "schedule_name": "random_13", "is_biased_choice":false,"side_choice": "RIGHT", "trial_number":14,"observed_reward":0,"unobserved_reward":0},{"RT":2904,"time": "2018-08-15 01:43:56pm", "schedule_type": "STATIC", "schedule_name": "random_13", "is_biased_choice":true,"side_choice": "LEFT", "trial_number":15,"observed_reward":0,"unobserved_reward":0},{"RT":2943,"time": "2018-08-15 01:43:59pm", "schedule_type": "STATIC", "schedule_name": "random_13", "is_biased_choice":false,"side_choice": "RIGHT", "trial_number":16,"observed_reward":0,"unobserved_reward":1},{"RT":5465,"time": "2018-08-15 01:44:04pm", "schedule_type": "STATIC", "schedule_name": "random_13", "is_biased_choice":true,"side_choice": "LEFT", "trial_number":17,"observed_reward":1,"unobserved_reward":0},{"RT":3590,"time": "2018-08-15 01:44:08pm", "schedule_type": "STATIC", "schedule_name": "random_13", "is_biased_choice":false,"side_choice": "RIGHT", "trial_number":18,"observed_reward":0,"unobserved_reward":0},{"RT":3209,"time": "2018-08-15 01:44:11pm", "schedule_type": "STATIC", "schedule_name": "random_13", "is_biased_choice":true,"side_choice": "LEFT", "trial_number":19,"observed_reward":0,"unobserved_reward":1},{"RT":10960,"time": "2018-08-15 01:44:24pm", "schedule_type": "STATIC", "schedule_name": "random_13", "is_biased_choice":false,"side_choice": "RIGHT", "trial_number":20,"observed_reward":0,"unobserved_reward":0},{"RT":5458,"time": "2018-08-15 01:44:28pm", "schedule_type": "STATIC", "schedule_name": "random_13", "is_biased_choice":true,"side_choice": "LEFT", "trial_number":21,"observed_reward":0,"unobserved_reward":0},{"RT":4832,"time": "2018-08-15 01:44:32pm", "schedule_type": "STATIC", "schedule_name": "random_13", "is_biased_choice":false,"side_choice": "RIGHT", "trial_number":22,"observed_reward":0,"unobserved_reward":0},{"RT":4960,"time": "2018-08-15 01:44:37pm", "schedule_type": "STATIC", "schedule_name": "random_13", "is_biased_choice":true,"side_choice": "LEFT", "trial_number":23,"observed_reward":1,"unobserved_reward":0},{"RT":15975,"time": "2018-08-15 01:44:53pm", "schedule_type": "STATIC", "schedule_name": "random_13", "is_biased_choice":false,"side_choice": "RIGHT", "trial_number":24,"observed_reward":0,"unobserved_reward":0},{"RT":3505,"time": "2018-08-15 01:44:57pm", "schedule_type": "STATIC", "schedule_name": "random_13", "is_biased_choice":true,"side_choice": "LEFT", "trial_number":25,"observed_reward":0,"unobserved_reward":0},{"RT":6913,"time": "2018-08-15 01:45:04pm", "schedule_type": "STATIC", "schedule_name": "random_13", "is_biased_choice":false,"side_choice": "RIGHT", "trial_number":26,"observed_reward":0,"unobserved_reward":1},{"RT":3342,"time": "2018-08-15 01:45:07pm", "schedule_type": "STATIC", "schedule_name": "random_13", "is_biased_choice":true,"side_choice": "LEFT", "trial_number":27,"observed_reward":0,"unobserved_reward":0},{"RT":2824,"time": "2018-08-15 01:45:10pm", "schedule_type": "STATIC", "schedule_name": "random_13", "is_biased_choice":false,"side_choice": "RIGHT", "trial_number":28,"observed_reward":0,"unobserved_reward":0},{"RT":3000,"time": "2018-08-15 01:45:13pm", "schedule_type": "STATIC", "schedule_name": "random_13", "is_biased_choice":true,"side_choice": "LEFT", "trial_number":29,"observed_reward":0,"unobserved_reward":1},{"RT":2624,"time": "2018-08-15 01:45:15pm", "schedule_type": "STATIC", "schedule_name": "random_13", "is_biased_choice":false,"side_choice": "RIGHT", "trial_number":30,"observed_reward":1,"unobserved_reward":1},{"RT":4655,"time": "2018-08-15 01:45:20pm", "schedule_type": "STATIC", "schedule_name": "random_13", "is_biased_choice":true,"side_choice": "LEFT", "trial_number":31,"observed_reward":0,"unobserved_reward":0},{"RT":2842,"time": "2018-08-15 01:45:24pm", "schedule_type": "STATIC", "schedule_name": "random_13", "is_biased_choice":false,"side_choice": "RIGHT", "trial_number":32,"observed_reward":0,"unobserved_reward":0},{"RT":6903,"time": "2018-08-15 01:45:30pm", "schedule_type": "STATIC", "schedule_name": "random_13", "is_biased_choice":true,"side_choice": "LEFT", "trial_number":33,"observed_reward":1,"unobserved_reward":1},{"RT":6192,"time": "2018-08-15 01:45:36pm", "schedule_type": "STATIC", "schedule_name": "random_13", "is_biased_choice":true,"side_choice": "LEFT", "trial_number":34,"observed_reward":1,"unobserved_reward":1},{"RT":3729,"time": "2018-08-15 01:45:40pm", "schedule_type": "STATIC", "schedule_name": "random_13", "is_biased_choice":false,"side_choice": "RIGHT", "trial_number":35,"observed_reward":0,"unobserved_reward":0},{"RT":3393,"time": "2018-08-15 01:45:43pm", "schedule_type": "STATIC", "schedule_name": "random_13", "is_biased_choice":true,"side_choice": "LEFT", "trial_number":36,"observed_reward":0,"unobserved_reward":0},{"RT":2905,"time": "2018-08-15 01:45:46pm", "schedule_type": "STATIC", "schedule_name": "random_13", "is_biased_choice":false,"side_choice": "RIGHT", "trial_number":37,"observed_reward":0,"unobserved_reward":1},{"RT":3031,"time": "2018-08-15 01:45:49pm", "schedule_type": "STATIC", "schedule_name": "random_13", "is_biased_choice":true,"side_choice": "LEFT", "trial_number":38,"observed_reward":1,"unobserved_reward":1},{"RT":6166,"time": "2018-08-15 01:45:55pm", "schedule_type": "STATIC", "schedule_name": "random_13", "is_biased_choice":false,"side_choice": "RIGHT", "trial_number":39,"observed_reward":0,"unobserved_reward":1},{"RT":4039,"time": "2018-08-15 01:46:00pm", "schedule_type": "STATIC", "schedule_name": "random_13", "is_biased_choice":true,"side_choice": "LEFT", "trial_number":40,"observed_reward":0,"unobserved_reward":1},{"RT":2776,"time": "2018-08-15 01:46:02pm", "schedule_type": "STATIC", "schedule_name": "random_13", "is_biased_choice":false,"side_choice": "RIGHT", "trial_number":41,"observed_reward":0,"unobserved_reward":0},{"RT":2688,"time": "2018-08-15 01:46:05pm", "schedule_type": "STATIC", "schedule_name": "random_13", "is_biased_choice":true,"side_choice": "LEFT", "trial_number":42,"observed_reward":0,"unobserved_reward":0},{"RT":2643,"time": "2018-08-15 01:46:08pm", "schedule_type": "STATIC", "schedule_name": "random_13", "is_biased_choice":false,"side_choice": "RIGHT", "trial_number":43,"observed_reward":1,"unobserved_reward":1},{"RT":5749,"time": "2018-08-15 01:46:13pm", "schedule_type": "STATIC", "schedule_name": "random_13", "is_biased_choice":true,"side_choice": "LEFT", "trial_number":44,"observed_reward":1,"unobserved_reward":0},{"RT":2997,"time": "2018-08-15 01:46:16pm", "schedule_type": "STATIC", "schedule_name": "random_13", "is_biased_choice":false,"side_choice": "RIGHT", "trial_number":45,"observed_reward":0,"unobserved_reward":0},{"RT":3140,"time": "2018-08-15 01:46:19pm", "schedule_type": "STATIC", "schedule_name": "random_13", "is_biased_choice":false,"side_choice": "RIGHT", "trial_number":46,"observed_reward":0,"unobserved_reward":0},{"RT":2776,"time": "2018-08-15 01:46:22pm", "schedule_type": "STATIC", "schedule_name": "random_13", "is_biased_choice":true,"side_choice": "LEFT", "trial_number":47,"observed_reward":0,"unobserved_reward":0},{"RT":2968,"time": "2018-08-15 01:46:26pm", "schedule_type": "STATIC", "schedule_name": "random_13", "is_biased_choice":false,"side_choice": "RIGHT", "trial_number":48,"observed_reward":0,"unobserved_reward":1},{"RT":3939,"time": "2018-08-15 01:46:29pm", "schedule_type": "STATIC", "schedule_name": "random_13", "is_biased_choice":true,"side_choice": "LEFT", "trial_number":49,"observed_reward":0,"unobserved_reward":0},{"RT":3270,"time": "2018-08-15 01:46:32pm", "schedule_type": "STATIC", "schedule_name": "random_13", "is_biased_choice":false,"side_choice": "RIGHT", "trial_number":50,"observed_reward":0,"unobserved_reward":0},{"RT":2558,"time": "2018-08-15 01:46:35pm", "schedule_type": "STATIC", "schedule_name": "random_13", "is_biased_choice":true,"side_choice": "LEFT", "trial_number":51,"observed_reward":0,"unobserved_reward":0},{"RT":2984,"time": "2018-08-15 01:46:38pm", "schedule_type": "STATIC", "schedule_name": "random_13", "is_biased_choice":false,"side_choice": "RIGHT", "trial_number":52,"observed_reward":1,"unobserved_reward":0},{"RT":3362,"time": "2018-08-15 01:46:41pm", "schedule_type": "STATIC", "schedule_name": "random_13", "is_biased_choice":true,"side_choice": "LEFT", "trial_number":53,"observed_reward":0,"unobserved_reward":0},{"RT":2839,"time": "2018-08-15 01:46:44pm", "schedule_type": "STATIC", "schedule_name": "random_13", "is_biased_choice":false,"side_choice": "RIGHT", "trial_number":54,"observed_reward":0,"unobserved_reward":0},{"RT":2762,"time": "2018-08-15 01:46:47pm", "schedule_type": "STATIC", "schedule_name": "random_13", "is_biased_choice":true,"side_choice": "LEFT", "trial_number":55,"observed_reward":0,"unobserved_reward":0},{"RT":3022,"time": "2018-08-15 01:46:50pm", "schedule_type": "STATIC", "schedule_name": "random_13", "is_biased_choice":false,"side_choice": "RIGHT", "trial_number":56,"observed_reward":0,"unobserved_reward":0},{"RT":3160,"time": "2018-08-15 01:46:53pm", "schedule_type": "STATIC", "schedule_name": "random_13", "is_biased_choice":true,"side_choice": "LEFT", "trial_number":57,"observed_reward":0,"unobserved_reward":0},{"RT":2722,"time": "2018-08-15 01:46:56pm", "schedule_type": "STATIC", "schedule_name": "random_13", "is_biased_choice":true,"side_choice": "LEFT", "trial_number":58,"observed_reward":0,"unobserved_reward":0},{"RT":2894,"time": "2018-08-15 01:46:59pm", "schedule_type": "STATIC", "schedule_name": "random_13", "is_biased_choice":false,"side_choice": "RIGHT", "trial_number":59,"observed_reward":1,"unobserved_reward":0},{"RT":9408,"time": "2018-08-15 01:47:08pm", "schedule_type": "STATIC", "schedule_name": "random_13", "is_biased_choice":true,"side_choice": "LEFT", "trial_number":60,"observed_reward":0,"unobserved_reward":0},{"RT":2704,"time": "2018-08-15 01:47:11pm", "schedule_type": "STATIC", "schedule_name": "random_13", "is_biased_choice":false,"side_choice": "RIGHT", "trial_number":61,"observed_reward":0,"unobserved_reward":0},{"RT":3064,"time": "2018-08-15 01:47:14pm", "schedule_type": "STATIC", "schedule_name": "random_13", "is_biased_choice":false,"side_choice": "RIGHT", "trial_number":62,"observed_reward":0,"unobserved_reward":1},{"RT":17641,"time": "2018-08-15 01:47:32pm", "schedule_type": "STATIC", "schedule_name": "random_13", "is_biased_choice":true,"side_choice": "LEFT", "trial_number":63,"observed_reward":0,"unobserved_reward":0},{"RT":3760,"time": "2018-08-15 01:47:35pm", "schedule_type": "STATIC", "schedule_name": "random_13", "is_biased_choice":false,"side_choice": "RIGHT", "trial_number":64,"observed_reward":0,"unobserved_reward":0},{"RT":2896,"time": "2018-08-15 01:47:38pm", "schedule_type": "STATIC", "schedule_name": "random_13", "is_biased_choice":true,"side_choice": "LEFT", "trial_number":65,"observed_reward":0,"unobserved_reward":0},{"RT":2528,"time": "2018-08-15 01:47:40pm", "schedule_type": "STATIC", "schedule_name": "random_13", "is_biased_choice":false,"side_choice": "RIGHT", "trial_number":66,"observed_reward":0,"unobserved_reward":0},{"RT":2744,"time": "2018-08-15 01:47:43pm", "schedule_type": "STATIC", "schedule_name": "random_13", "is_biased_choice":true,"side_choice": "LEFT", "trial_number":67,"observed_reward":0,"unobserved_reward":0},{"RT":2442,"time": "2018-08-15 01:47:46pm", "schedule_type": "STATIC", "schedule_name": "random_13", "is_biased_choice":false,"side_choice": "RIGHT", "trial_number":68,"observed_reward":0,"unobserved_reward":0},{"RT":2621,"time": "2018-08-15 01:47:49pm", "schedule_type": "STATIC", "schedule_name": "random_13", "is_biased_choice":true,"side_choice": "LEFT", "trial_number":69,"observed_reward":0,"unobserved_reward":0},{"RT":3128,"time": "2018-08-15 01:47:51pm", "schedule_type": "STATIC", "schedule_name": "random_13", "is_biased_choice":false,"side_choice": "RIGHT", "trial_number":70,"observed_reward":0,"unobserved_reward":1},{"RT":2696,"time": "2018-08-15 01:47:54pm", "schedule_type": "STATIC", "schedule_name": "random_13", "is_biased_choice":true,"side_choice": "LEFT", "trial_number":71,"observed_reward":1,"unobserved_reward":0},{"RT":3656,"time": "2018-08-15 01:47:58pm", "schedule_type": "STATIC", "schedule_name": "random_13", "is_biased_choice":false,"side_choice": "RIGHT", "trial_number":72,"observed_reward":1,"unobserved_reward":1},{"RT":4464,"time": "2018-08-15 01:48:02pm", "schedule_type": "STATIC", "schedule_name": "random_13", "is_biased_choice":true,"side_choice": "LEFT", "trial_number":73,"observed_reward":0,"unobserved_reward":0},{"RT":2928,"time": "2018-08-15 01:48:05pm", "schedule_type": "STATIC", "schedule_name": "random_13", "is_biased_choice":false,"side_choice": "RIGHT", "trial_number":74,"observed_reward":0,"unobserved_reward":0},{"RT":3425,"time": "2018-08-15 01:48:09pm", "schedule_type": "STATIC", "schedule_name": "random_13", "is_biased_choice":false,"side_choice": "RIGHT", "trial_number":75,"observed_reward":0,"unobserved_reward":1},{"RT":2599,"time": "2018-08-15 01:48:11pm", "schedule_type": "STATIC", "schedule_name": "random_13", "is_biased_choice":true,"side_choice": "LEFT", "trial_number":76,"observed_reward":0,"unobserved_reward":0},{"RT":2880,"time": "2018-08-15 01:48:14pm", "schedule_type": "STATIC", "schedule_name": "random_13", "is_biased_choice":false,"side_choice": "RIGHT", "trial_number":77,"observed_reward":0,"unobserved_reward":0},{"RT":2688,"time": "2018-08-15 01:48:17pm", "schedule_type": "STATIC", "schedule_name": "random_13", "is_biased_choice":true,"side_choice": "LEFT", "trial_number":78,"observed_reward":0,"unobserved_reward":0},{"RT":3304,"time": "2018-08-15 01:48:20pm", "schedule_type": "STATIC", "schedule_name": "random_13", "is_biased_choice":false,"side_choice": "RIGHT", "trial_number":79,"observed_reward":0,"unobserved_reward":0},{"RT":2536,"time": "2018-08-15 01:48:23pm", "schedule_type": "STATIC", "schedule_name": "random_13", "is_biased_choice":true,"side_choice": "LEFT", "trial_number":80,"observed_reward":0,"unobserved_reward":0},{"RT":3008,"time": "2018-08-15 01:48:26pm", "schedule_type": "STATIC", "schedule_name": "random_13", "is_biased_choice":true,"side_choice": "LEFT", "trial_number":81,"observed_reward":1,"unobserved_reward":1},{"RT":3663,"time": "2018-08-15 01:48:30pm", "schedule_type": "STATIC", "schedule_name": "random_13", "is_biased_choice":true,"side_choice": "LEFT", "trial_number":82,"observed_reward":1,"unobserved_reward":0},{"RT":3154,"time": "2018-08-15 01:48:32pm", "schedule_type": "STATIC", "schedule_name": "random_13", "is_biased_choice":false,"side_choice": "RIGHT", "trial_number":83,"observed_reward":0,"unobserved_reward":0},{"RT":2584,"time": "2018-08-15 01:48:35pm", "schedule_type": "STATIC", "schedule_name": "random_13", "is_biased_choice":true,"side_choice": "LEFT", "trial_number":84,"observed_reward":0,"unobserved_reward":1},{"RT":2504,"time": "2018-08-15 01:48:38pm", "schedule_type": "STATIC", "schedule_name": "random_13", "is_biased_choice":true,"side_choice": "LEFT", "trial_number":85,"observed_reward":0,"unobserved_reward":0},{"RT":2616,"time": "2018-08-15 01:48:40pm", "schedule_type": "STATIC", "schedule_name": "random_13", "is_biased_choice":false,"side_choice": "RIGHT", "trial_number":86,"observed_reward":0,"unobserved_reward":0},{"RT":2506,"time": "2018-08-15 01:48:43pm", "schedule_type": "STATIC", "schedule_name": "random_13", "is_biased_choice":false,"side_choice": "RIGHT", "trial_number":87,"observed_reward":1,"unobserved_reward":0},{"RT":3926,"time": "2018-08-15 01:48:47pm", "schedule_type": "STATIC", "schedule_name": "random_13", "is_biased_choice":false,"side_choice": "RIGHT", "trial_number":88,"observed_reward":0,"unobserved_reward":0},{"RT":2391,"time": "2018-08-15 01:48:49pm", "schedule_type": "STATIC", "schedule_name": "random_13", "is_biased_choice":false,"side_choice": "RIGHT", "trial_number":89,"observed_reward":1,"unobserved_reward":0},{"RT":2689,"time": "2018-08-15 01:48:52pm", "schedule_type": "STATIC", "schedule_name": "random_13", "is_biased_choice":true,"side_choice": "LEFT", "trial_number":90,"observed_reward":1,"unobserved_reward":0},{"RT":2735,"time": "2018-08-15 01:48:54pm", "schedule_type": "STATIC", "schedule_name": "random_13", "is_biased_choice":true,"side_choice": "LEFT", "trial_number":91,"observed_reward":0,"unobserved_reward":0},{"RT":2561,"time": "2018-08-15 01:48:57pm", "schedule_type": "STATIC", "schedule_name": "random_13", "is_biased_choice":false,"side_choice": "RIGHT", "trial_number":92,"observed_reward":0,"unobserved_reward":0},{"RT":2505,"time": "2018-08-15 01:48:59pm", "schedule_type": "STATIC", "schedule_name": "random_13", "is_biased_choice":false,"side_choice": "RIGHT", "trial_number":93,"observed_reward":0,"unobserved_reward":1},{"RT":2438,"time": "2018-08-15 01:49:02pm", "schedule_type": "STATIC", "schedule_name": "random_13", "is_biased_choice":false,"side_choice": "RIGHT", "trial_number":94,"observed_reward":0,"unobserved_reward":0},{"RT":3233,"time": "2018-08-15 01:49:05pm", "schedule_type": "STATIC", "schedule_name": "random_13", "is_biased_choice":true,"side_choice": "LEFT", "trial_number":95,"observed_reward":0,"unobserved_reward":0},{"RT":2903,"time": "2018-08-15 01:49:08pm", "schedule_type": "STATIC", "schedule_name": "random_13", "is_biased_choice":false,"side_choice": "RIGHT", "trial_number":96,"observed_reward":1,"unobserved_reward":0},{"RT":3944,"time": "2018-08-15 01:49:12pm", "schedule_type": "STATIC", "schedule_name": "random_13", "is_biased_choice":false,"side_choice": "RIGHT", "trial_number":97,"observed_reward":0,"unobserved_reward":0},{"RT":2992,"time": "2018-08-15 01:49:16pm", "schedule_type": "STATIC", "schedule_name": "random_13", "is_biased_choice":true,"side_choice": "LEFT", "trial_number":98,"observed_reward":0,"unobserved_reward":0},