[{"RT":6820,"time": "2018-08-15 01:42:54pm", "schedule_type": "STATIC", "schedule_name": "random_13", "is_biased_choice":false,"side_choice": "LEFT", "trial_number":0,"observed_reward":1,"unobserved_reward":0},{"RT":7168,"time": "2018-08-15 01:43:01pm", "schedule_type": "STATIC", "schedule_name": "random_13", "is_biased_choice":true,"side_choice": "RIGHT", "trial_number":1,"observed_reward":0,"unobserved_reward":1},{"RT":3248,"time": "2018-08-15 01:43:04pm", "schedule_type": "STATIC", "schedule_name": "random_13", "is_biased_choice":false,"side_choice": "LEFT", "trial_number":2,"observed_reward":1,"unobserved_reward":1},{"RT":3175,"time": "2018-08-15 01:43:08pm", "schedule_type": "STATIC", "schedule_name": "random_13", "is_biased_choice":false,"side_choice": "LEFT", "trial_number":3,"observed_reward":0,"unobserved_reward":0},{"RT":3144,"time": "2018-08-15 01:43:11pm", "schedule_type": "STATIC", "schedule_name": "random_13", "is_biased_choice":false,"side_choice": "LEFT", "trial_number":4,"observed_reward":1,"unobserved_reward":0},{"RT":23455,"time": "2018-08-15 01:43:34pm", "schedule_type": "STATIC", "schedule_name": "random_13", "is_biased_choice":false,"side_choice": "LEFT", "trial_number":5,"observed_reward":1,"unobserved_reward":0},{"RT":6456,"time": "2018-08-15 01:43:41pm", "schedule_type": "STATIC", "schedule_name": "random_13", "is_biased_choice":true,"side_choice": "RIGHT", "trial_number":6,"observed_reward":0,"unobserved_reward":1},{"RT":6089,"time": "2018-08-15 01:43:47pm", "schedule_type": "STATIC", "schedule_name": "random_13", "is_biased_choice":true,"side_choice": "RIGHT", "trial_number":7,"observed_reward":1,"unobserved_reward":1},{"RT":7239,"time": "2018-08-15 01:43:54pm", "schedule_type": "STATIC", "schedule_name": "random_13", "is_biased_choice":false,"side_choice": "LEFT", "trial_number":8,"observed_reward":1,"unobserved_reward":0},{"RT":3312,"time": "2018-08-15 01:43:57pm", "schedule_type": "STATIC", "schedule_name": "random_13", "is_biased_choice":false,"side_choice": "LEFT", "trial_number":9,"observed_reward":0,"unobserved_reward":0},{"RT":16320,"time": "2018-08-15 01:44:14pm", "schedule_type": "STATIC", "schedule_name": "random_13", "is_biased_choice":false,"side_choice": "LEFT", "trial_number":10,"observed_reward":0,"unobserved_reward":0},{"RT":3048,"time": "2018-08-15 01:44:17pm", "schedule_type": "STATIC", "schedule_name": "random_13", "is_biased_choice":false,"side_choice": "LEFT", "trial_number":11,"observed_reward":1,"unobserved_reward":0},{"RT":2896,"time": "2018-08-15 01:44:20pm", "schedule_type": "STATIC", "schedule_name": "random_13", "is_biased_choice":false,"side_choice": "LEFT", "trial_number":12,"observed_reward":0,"unobserved_reward":1},{"RT":2720,"time": "2018-08-15 01:44:24pm", "schedule_type": "STATIC", "schedule_name": "random_13", "is_biased_choice":false,"side_choice": "LEFT", "trial_number":13,"observed_reward":0,"unobserved_reward":0},{"RT":10976,"time": "2018-08-15 01:44:33pm", "schedule_type": "STATIC", "schedule_name": "random_13", "is_biased_choice":false,"side_choice": "LEFT", "trial_number":14,"observed_reward":0,"unobserved_reward":0},{"RT":3169,"time": "2018-08-15 01:44:36pm", "schedule_type": "STATIC", "schedule_name": "random_13", "is_biased_choice":false,"side_choice": "LEFT", "trial_number":15,"observed_reward":0,"unobserved_reward":0},{"RT":3032,"time": "2018-08-15 01:44:39pm", "schedule_type": "STATIC", "schedule_name": "random_13", "is_biased_choice":false,"side_choice": "LEFT", "trial_number":16,"observed_reward":0,"unobserved_reward":1},{"RT":2712,"time": "2018-08-15 01:44:42pm", "schedule_type": "STATIC", "schedule_name": "random_13", "is_biased_choice":false,"side_choice": "LEFT", "trial_number":17,"observed_reward":0,"unobserved_reward":1},{"RT":2576,"time": "2018-08-15 01:44:45pm", "schedule_type": "STATIC", "schedule_name": "random_13", "is_biased_choice":false,"side_choice": "LEFT", "trial_number":18,"observed_reward":0,"unobserved_reward":0},{"RT":2567,"time": "2018-08-15 01:44:47pm", "schedule_type": "STATIC", "schedule_name": "random_13", "is_biased_choice":false,"side_choice": "LEFT", "trial_number":19,"observed_reward":1,"unobserved_reward":0},{"RT":2560,"time": "2018-08-15 01:44:50pm", "schedule_type": "STATIC", "schedule_name": "random_13", "is_biased_choice":false,"side_choice": "LEFT", "trial_number":20,"observed_reward":0,"unobserved_reward":0},{"RT":2473,"time": "2018-08-15 01:44:52pm", "schedule_type": "STATIC", "schedule_name": "random_13", "is_biased_choice":false,"side_choice": "LEFT", "trial_number":21,"observed_reward":0,"unobserved_reward":0},