trial_number, time, schedule_type, schedule_name, is_biased_choice, side_choice, RT, observed_reward, unobserved_reward, biased_reward, unbiased_reward
0,2018-08-15 03:34:23pm, STATIC, random_3, true, RIGHT, 3240, 0, 1, 0, 1
1,2018-08-15 03:34:27pm, STATIC, random_3, false, LEFT, 3773, 0, 0, 0, 0
2,2018-08-15 03:34:31pm, STATIC, random_3, true, RIGHT, 3821, 0, 0, 0, 0
3,2018-08-15 03:34:36pm, STATIC, random_3, true, RIGHT, 4922, 0, 0, 0, 0
4,2018-08-15 03:34:41pm, STATIC, random_3, false, LEFT, 5928, 0, 0, 0, 0
5,2018-08-15 03:34:55pm, STATIC, random_3, true, RIGHT, 13441, 0, 0, 0, 0
6,2018-08-15 03:34:59pm, STATIC, random_3, false, LEFT, 3535, 1, 1, 1, 1
7,2018-08-15 03:35:03pm, STATIC, random_3, false, LEFT, 3824, 0, 0, 0, 0
8,2018-08-15 03:35:07pm, STATIC, random_3, false, LEFT, 4832, 0, 0, 0, 0
9,2018-08-15 03:35:13pm, STATIC, random_3, false, LEFT, 5919, 0, 0, 0, 0
10,2018-08-15 03:35:22pm, STATIC, random_3, false, LEFT, 8353, 1, 0, 0, 1
11,2018-08-15 03:35:41pm, STATIC, random_3, false, LEFT, 19224, 1, 0, 0, 1
12,2018-08-15 03:35:44pm, STATIC, random_3, false, LEFT, 2919, 0, 1, 1, 0
13,2018-08-15 03:35:46pm, STATIC, random_3, false, LEFT, 2577, 0, 1, 1, 0
14,2018-08-15 03:35:49pm, STATIC, random_3, false, LEFT, 2441, 1, 1, 1, 1
15,2018-08-15 03:35:51pm, STATIC, random_3, false, LEFT, 2549, 1, 0, 0, 1
16,2018-08-15 03:35:54pm, STATIC, random_3, false, LEFT, 2479, 0, 0, 0, 0
17,2018-08-15 03:35:56pm, STATIC, random_3, false, LEFT, 2513, 0, 1, 1, 0
18,2018-08-15 03:35:59pm, STATIC, random_3, false, LEFT, 2488, 0, 1, 1, 0
19,2018-08-15 03:36:02pm, STATIC, random_3, false, LEFT, 2663, 0, 0, 0, 0
20,2018-08-15 03:36:04pm, STATIC, random_3, false, LEFT, 2632, 0, 1, 1, 0
21,2018-08-15 03:36:07pm, STATIC, random_3, false, LEFT, 2456, 0, 0, 0, 0
22,2018-08-15 03:36:09pm, STATIC, random_3, false, LEFT, 2416, 0, 0, 0, 0
23,2018-08-15 03:36:11pm, STATIC, random_3, true, RIGHT, 2361, 0, 0, 0, 0
24,2018-08-15 03:36:13pm, STATIC, random_3, false, LEFT, 2383, 0, 0, 0, 0
25,2018-08-15 03:36:16pm, STATIC, random_3, false, LEFT, 2360, 0, 0, 0, 0
26,2018-08-15 03:36:18pm, STATIC, random_3, false, LEFT, 2281, 0, 0, 0, 0
27,2018-08-15 03:36:21pm, STATIC, random_3, false, LEFT, 2311, 0, 1, 1, 0
28,2018-08-15 03:36:23pm, STATIC, random_3, false, LEFT, 2424, 0, 0, 0, 0
29,2018-08-15 03:36:26pm, STATIC, random_3, false, LEFT, 2682, 0, 0, 0, 0
30,2018-08-15 03:36:28pm, STATIC, random_3, false, LEFT, 2367, 0, 0, 0, 0
31,2018-08-15 03:36:31pm, STATIC, random_3, false, LEFT, 2592, 0, 0, 0, 0
32,2018-08-15 03:36:33pm, STATIC, random_3, false, LEFT, 2471, 0, 0, 0, 0
33,2018-08-15 03:36:36pm, STATIC, random_3, false, LEFT, 2657, 0, 1, 1, 0
34,2018-08-15 03:36:38pm, STATIC, random_3, false, LEFT, 2680, 0, 0, 0, 0
35,2018-08-15 03:36:41pm, STATIC, random_3, false, LEFT, 2315, 0, 0, 0, 0
36,2018-08-15 03:36:43pm, STATIC, random_3, false, LEFT, 2398, 1, 0, 0, 1
37,2018-08-15 03:36:46pm, STATIC, random_3, false, LEFT, 2686, 0, 0, 0, 0
38,2018-08-15 03:36:49pm, STATIC, random_3, false, LEFT, 3001, 0, 0, 0, 0
39,2018-08-15 03:36:52pm, STATIC, random_3, false, LEFT, 3466, 0, 0, 0, 0
40,2018-08-15 03:37:24pm, STATIC, random_3, true, RIGHT, 31071, 1, 1, 1, 1
41,2018-08-15 03:37:26pm, STATIC, random_3, false, LEFT, 2552, 0, 0, 0, 0
42,2018-08-15 03:37:28pm, STATIC, random_3, true, RIGHT, 2568, 0, 1, 0, 1
43,2018-08-15 03:37:31pm, STATIC, random_3, true, RIGHT, 2303, 0, 0, 0, 0
44,2018-08-15 03:37:33pm, STATIC, random_3, true, RIGHT, 2313, 0, 0, 0, 0
45,2018-08-15 03:37:36pm, STATIC, random_3, false, LEFT, 2407, 1, 1, 1, 1
46,2018-08-15 03:37:38pm, STATIC, random_3, false, LEFT, 2656, 1, 1, 1, 1
47,2018-08-15 03:37:41pm, STATIC, random_3, false, LEFT, 2505, 0, 0, 0, 0
48,2018-08-15 03:37:43pm, STATIC, random_3, false, LEFT, 2399, 0, 0, 0, 0
49,2018-08-15 03:37:46pm, STATIC, random_3, true, RIGHT, 2249, 0, 0, 0, 0
50,2018-08-15 03:37:47pm, STATIC, random_3, false, LEFT, 2288, 0, 0, 0, 0
51,2018-08-15 03:37:50pm, STATIC, random_3, false, LEFT, 2455, 0, 1, 1, 0
52,2018-08-15 03:37:52pm, STATIC, random_3, false, LEFT, 2321, 1, 0, 0, 1
53,2018-08-15 03:37:55pm, STATIC, random_3, false, LEFT, 2473, 0, 0, 0, 0
54,2018-08-15 03:37:58pm, STATIC, random_3, true, RIGHT, 2863, 0, 1, 0, 1
55,2018-08-15 03:38:00pm, STATIC, random_3, false, LEFT, 2546, 0, 0, 0, 0
56,2018-08-15 03:38:03pm, STATIC, random_3, true, RIGHT, 2678, 1, 0, 1, 0
57,2018-08-15 03:38:06pm, STATIC, random_3, false, LEFT, 2409, 0, 0, 0, 0
58,2018-08-15 03:38:08pm, STATIC, random_3, true, RIGHT, 2926, 0, 1, 0, 1
59,2018-08-15 03:38:11pm, STATIC, random_3, true, RIGHT, 3001, 0, 1, 0, 1
60,2018-08-15 03:38:14pm, STATIC, random_3, false, LEFT, 2624, 0, 0, 0, 0
61,2018-08-15 03:38:17pm, STATIC, random_3, true, RIGHT, 2616, 0, 0, 0, 0
62,2018-08-15 03:38:19pm, STATIC, random_3, false, LEFT, 2680, 0, 0, 0, 0
63,2018-08-15 03:38:22pm, STATIC, random_3, true, RIGHT, 2832, 1, 1, 1, 1
64,2018-08-15 03:38:25pm, STATIC, random_3, true, RIGHT, 2632, 1, 0, 1, 0
65,2018-08-15 03:38:27pm, STATIC, random_3, true, RIGHT, 2400, 0, 1, 0, 1
66,2018-08-15 03:38:30pm, STATIC, random_3, false, LEFT, 2775, 0, 0, 0, 0
67,2018-08-15 03:38:32pm, STATIC, random_3, true, RIGHT, 2441, 0, 0, 0, 0
68,2018-08-15 03:38:35pm, STATIC, random_3, true, RIGHT, 2728, 0, 1, 0, 1
69,2018-08-15 03:38:37pm, STATIC, random_3, true, RIGHT, 2392, 0, 0, 0, 0
70,2018-08-15 03:38:40pm, STATIC, random_3, false, LEFT, 2464, 0, 0, 0, 0
71,2018-08-15 03:38:42pm, STATIC, random_3, true, RIGHT, 2488, 1, 0, 1, 0
72,2018-08-15 03:38:45pm, STATIC, random_3, false, LEFT, 2440, 0, 0, 0, 0
73,2018-08-15 03:38:47pm, STATIC, random_3, true, RIGHT, 2600, 1, 0, 1, 0
74,2018-08-15 03:38:58pm, STATIC, random_3, false, LEFT, 9976, 0, 0, 0, 0
75,2018-08-15 03:39:00pm, STATIC, random_3, true, RIGHT, 2463, 1, 0, 1, 0
76,2018-08-15 03:39:02pm, STATIC, random_3, true, RIGHT, 2440, 1, 0, 1, 0
77,2018-08-15 03:39:05pm, STATIC, random_3, true, RIGHT, 2416, 0, 0, 0, 0
78,2018-08-15 03:39:07pm, STATIC, random_3, false, LEFT, 2489, 0, 0, 0, 0
79,2018-08-15 03:39:10pm, STATIC, random_3, true, RIGHT, 2495, 0, 0, 0, 0
80,2018-08-15 03:39:12pm, STATIC, random_3, false, LEFT, 2257, 0, 0, 0, 0
81,2018-08-15 03:39:14pm, STATIC, random_3, true, RIGHT, 2311, 1, 0, 1, 0
82,2018-08-15 03:39:17pm, STATIC, random_3, false, LEFT, 2384, 1, 0, 0, 1
83,2018-08-15 03:39:19pm, STATIC, random_3, false, LEFT, 2417, 1, 1, 1, 1
84,2018-08-15 03:39:22pm, STATIC, random_3, true, RIGHT, 2303, 0, 0, 0, 0
85,2018-08-15 03:39:24pm, STATIC, random_3, false, LEFT, 2633, 0, 0, 0, 0
86,2018-08-15 03:39:27pm, STATIC, random_3, true, RIGHT, 2479, 1, 0, 1, 0
87,2018-08-15 03:39:29pm, STATIC, random_3, true, RIGHT, 2440, 0, 0, 0, 0
88,2018-08-15 03:39:31pm, STATIC, random_3, true, RIGHT, 2400, 0, 0, 0, 0
89,2018-08-15 03:39:34pm, STATIC, random_3, false, LEFT, 2448, 1, 0, 0, 1
90,2018-08-15 03:39:36pm, STATIC, random_3, false, LEFT, 2353, 1, 0, 0, 1
91,2018-08-15 03:39:38pm, STATIC, random_3, false, LEFT, 2376, 1, 0, 0, 1
92,2018-08-15 03:39:41pm, STATIC, random_3, false, LEFT, 2278, 1, 0, 0, 1
93,2018-08-15 03:39:43pm, STATIC, random_3, false, LEFT, 2489, 1, 0, 0, 1
94,2018-08-15 03:39:46pm, STATIC, random_3, false, LEFT, 2287, 0, 0, 0, 0
95,2018-08-15 03:39:48pm, STATIC, random_3, true, RIGHT, 2322, 0, 0, 0, 0
96,2018-08-15 03:39:50pm, STATIC, random_3, false, LEFT, 2287, 0, 0, 0, 0
97,2018-08-15 03:39:53pm, STATIC, random_3, true, RIGHT, 2520, 0, 0, 0, 0
98,2018-08-15 03:39:55pm, STATIC, random_3, false, LEFT, 2167, 0, 1, 1, 0
99,2018-08-15 03:39:57pm, STATIC, random_3, true, RIGHT, 2409, 1, 0, 1, 0
