[{"RT":3240,"time": "2018-08-15 03:34:23pm", "schedule_type": "STATIC", "schedule_name": "random_3", "is_biased_choice":true,"side_choice": "RIGHT", "trial_number":0,"observed_reward":0,"unobserved_reward":1},{"RT":3773,"time": "2018-08-15 03:34:27pm", "schedule_type": "STATIC", "schedule_name": "random_3", "is_biased_choice":false,"side_choice": "LEFT", "trial_number":1,"observed_reward":0,"unobserved_reward":0},{"RT":3821,"time": "2018-08-15 03:34:31pm", "schedule_type": "STATIC", "schedule_name": "random_3", "is_biased_choice":true,"side_choice": "RIGHT", "trial_number":2,"observed_reward":0,"unobserved_reward":0},{"RT":4922,"time": "2018-08-15 03:34:36pm", "schedule_type": "STATIC", "schedule_name": "random_3", "is_biased_choice":true,"side_choice": "RIGHT", "trial_number":3,"observed_reward":0,"unobserved_reward":0},{"RT":5928,"time": "2018-08-15 03:34:41pm", "schedule_type": "STATIC", "schedule_name": "random_3", "is_biased_choice":false,"side_choice": "LEFT", "trial_number":4,"observed_reward":0,"unobserved_reward":0},{"RT":13441,"time": "2018-08-15 03:34:55pm", "schedule_type": "STATIC", "schedule_name": "random_3", "is_biased_choice":true,"side_choice": "RIGHT", "trial_number":5,"observed_reward":0,"unobserved_reward":0},{"RT":3535,"time": "2018-08-15 03:34:59pm", "schedule_type": "STATIC", "schedule_name": "random_3", "is_biased_choice":false,"side_choice": "LEFT", "trial_number":6,"observed_reward":1,"unobserved_reward":1},{"RT":3824,"time": "2018-08-15 03:35:03pm", "schedule_type": "STATIC", "schedule_name": "random_3", "is_biased_choice":false,"side_choice": "LEFT", "trial_number":7,"observed_reward":0,"unobserved_reward":0},{"RT":4832,"time": "2018-08-15 03:35:07pm", "schedule_type": "STATIC", "schedule_name": "random_3", "is_biased_choice":false,"side_choice": "LEFT", "trial_number":8,"observed_reward":0,"unobserved_reward":0},{"RT":5919,"time": "2018-08-15 03:35:13pm", "schedule_type": "STATIC", "schedule_name": "random_3", "is_biased_choice":false,"side_choice": "LEFT", "trial_number":9,"observed_reward":0,"unobserved_reward":0},{"RT":8353,"time": "2018-08-15 03:35:22pm", "schedule_type": "STATIC", "schedule_name": "random_3", "is_biased_choice":false,"side_choice": "LEFT", "trial_number":10,"observed_reward":1,"unobserved_reward":0},{"RT":19224,"time": "2018-08-15 03:35:41pm", "schedule_type": "STATIC", "schedule_name": "random_3", "is_biased_choice":false,"side_choice": "LEFT", "trial_number":11,"observed_reward":1,"unobserved_reward":0},{"RT":2919,"time": "2018-08-15 03:35:44pm", "schedule_type": "STATIC", "schedule_name": "random_3", "is_biased_choice":false,"side_choice": "LEFT", "trial_number":12,"observed_reward":0,"unobserved_reward":1},{"RT":2577,"time": "2018-08-15 03:35:46pm", "schedule_type": "STATIC", "schedule_name": "random_3", "is_biased_choice":false,"side_choice": "LEFT", "trial_number":13,"observed_reward":0,"unobserved_reward":1},{"RT":2441,"time": "2018-08-15 03:35:49pm", "schedule_type": "STATIC", "schedule_name": "random_3", "is_biased_choice":false,"side_choice": "LEFT", "trial_number":14,"observed_reward":1,"unobserved_reward":1},{"RT":2549,"time": "2018-08-15 03:35:51pm", "schedule_type": "STATIC", "schedule_name": "random_3", "is_biased_choice":false,"side_choice": "LEFT", "trial_number":15,"observed_reward":1,"unobserved_reward":0},{"RT":2479,"time": "2018-08-15 03:35:54pm", "schedule_type": "STATIC", "schedule_name": "random_3", "is_biased_choice":false,"side_choice": "LEFT", "trial_number":16,"observed_reward":0,"unobserved_reward":0},{"RT":2513,"time": "2018-08-15 03:35:56pm", "schedule_type": "STATIC", "schedule_name": "random_3", "is_biased_choice":false,"side_choice": "LEFT", "trial_number":17,"observed_reward":0,"unobserved_reward":1},{"RT":2488,"time": "2018-08-15 03:35:59pm", "schedule_type": "STATIC", "schedule_name": "random_3", "is_biased_choice":false,"side_choice": "LEFT", "trial_number":18,"observed_reward":0,"unobserved_reward":1},{"RT":2663,"time": "2018-08-15 03:36:02pm", "schedule_type": "STATIC", "schedule_name": "random_3", "is_biased_choice":false,"side_choice": "LEFT", "trial_number":19,"observed_reward":0,"unobserved_reward":0},{"RT":2632,"time": "2018-08-15 03:36:04pm", "schedule_type": "STATIC", "schedule_name": "random_3", "is_biased_choice":false,"side_choice": "LEFT", "trial_number":20,"observed_reward":0,"unobserved_reward":1},{"RT":2456,"time": "2018-08-15 03:36:07pm", "schedule_type": "STATIC", "schedule_name": "random_3", "is_biased_choice":false,"side_choice": "LEFT", "trial_number":21,"observed_reward":0,"unobserved_reward":0},{"RT":2416,"time": "2018-08-15 03:36:09pm", "schedule_type": "STATIC", "schedule_name": "random_3", "is_biased_choice":false,"side_choice": "LEFT", "trial_number":22,"observed_reward":0,"unobserved_reward":0},{"RT":2361,"time": "2018-08-15 03:36:11pm", "schedule_type": "STATIC", "schedule_name": "random_3", "is_biased_choice":true,"side_choice": "RIGHT", "trial_number":23,"observed_reward":0,"unobserved_reward":0},{"RT":2383,"time": "2018-08-15 03:36:13pm", "schedule_type": "STATIC", "schedule_name": "random_3", "is_biased_choice":false,"side_choice": "LEFT", "trial_number":24,"observed_reward":0,"unobserved_reward":0},{"RT":2360,"time": "2018-08-15 03:36:16pm", "schedule_type": "STATIC", "schedule_name": "random_3", "is_biased_choice":false,"side_choice": "LEFT", "trial_number":25,"observed_reward":0,"unobserved_reward":0},{"RT":2281,"time": "2018-08-15 03:36:18pm", "schedule_type": "STATIC", "schedule_name": "random_3", "is_biased_choice":false,"side_choice": "LEFT", "trial_number":26,"observed_reward":0,"unobserved_reward":0},{"RT":2311,"time": "2018-08-15 03:36:21pm", "schedule_type": "STATIC", "schedule_name": "random_3", "is_biased_choice":false,"side_choice": "LEFT", "trial_number":27,"observed_reward":0,"unobserved_reward":1},{"RT":2424,"time": "2018-08-15 03:36:23pm", "schedule_type": "STATIC", "schedule_name": "random_3", "is_biased_choice":false,"side_choice": "LEFT", "trial_number":28,"observed_reward":0,"unobserved_reward":0},{"RT":2682,"time": "2018-08-15 03:36:26pm", "schedule_type": "STATIC", "schedule_name": "random_3", "is_biased_choice":false,"side_choice": "LEFT", "trial_number":29,"observed_reward":0,"unobserved_reward":0},{"RT":2367,"time": "2018-08-15 03:36:28pm", "schedule_type": "STATIC", "schedule_name": "random_3", "is_biased_choice":false,"side_choice": "LEFT", "trial_number":30,"observed_reward":0,"unobserved_reward":0},{"RT":2592,"time": "2018-08-15 03:36:31pm", "schedule_type": "STATIC", "schedule_name": "random_3", "is_biased_choice":false,"side_choice": "LEFT", "trial_number":31,"observed_reward":0,"unobserved_reward":0},{"RT":2471,"time": "2018-08-15 03:36:33pm", "schedule_type": "STATIC", "schedule_name": "random_3", "is_biased_choice":false,"side_choice": "LEFT", "trial_number":32,"observed_reward":0,"unobserved_reward":0},{"RT":2657,"time": "2018-08-15 03:36:36pm", "schedule_type": "STATIC", "schedule_name": "random_3", "is_biased_choice":false,"side_choice": "LEFT", "trial_number":33,"observed_reward":0,"unobserved_reward":1},{"RT":2680,"time": "2018-08-15 03:36:38pm", "schedule_type": "STATIC", "schedule_name": "random_3", "is_biased_choice":false,"side_choice": "LEFT", "trial_number":34,"observed_reward":0,"unobserved_reward":0},{"RT":2315,"time": "2018-08-15 03:36:41pm", "schedule_type": "STATIC", "schedule_name": "random_3", "is_biased_choice":false,"side_choice": "LEFT", "trial_number":35,"observed_reward":0,"unobserved_reward":0},{"RT":2398,"time": "2018-08-15 03:36:43pm", "schedule_type": "STATIC", "schedule_name": "random_3", "is_biased_choice":false,"side_choice": "LEFT", "trial_number":36,"observed_reward":1,"unobserved_reward":0},{"RT":2686,"time": "2018-08-15 03:36:46pm", "schedule_type": "STATIC", "schedule_name": "random_3", "is_biased_choice":false,"side_choice": "LEFT", "trial_number":37,"observed_reward":0,"unobserved_reward":0},{"RT":3001,"time": "2018-08-15 03:36:49pm", "schedule_type": "STATIC", "schedule_name": "random_3", "is_biased_choice":false,"side_choice": "LEFT", "trial_number":38,"observed_reward":0,"unobserved_reward":0},{"RT":3466,"time": "2018-08-15 03:36:52pm", "schedule_type": "STATIC", "schedule_name": "random_3", "is_biased_choice":false,"side_choice": "LEFT", "trial_number":39,"observed_reward":0,"unobserved_reward":0},{"RT":31071,"time": "2018-08-15 03:37:24pm", "schedule_type": "STATIC", "schedule_name": "random_3", "is_biased_choice":true,"side_choice": "RIGHT", "trial_number":40,"observed_reward":1,"unobserved_reward":1},{"RT":2552,"time": "2018-08-15 03:37:26pm", "schedule_type": "STATIC", "schedule_name": "random_3", "is_biased_choice":false,"side_choice": "LEFT", "trial_number":41,"observed_reward":0,"unobserved_reward":0},{"RT":2568,"time": "2018-08-15 03:37:28pm", "schedule_type": "STATIC", "schedule_name": "random_3", "is_biased_choice":true,"side_choice": "RIGHT", "trial_number":42,"observed_reward":0,"unobserved_reward":1},{"RT":2303,"time": "2018-08-15 03:37:31pm", "schedule_type": "STATIC", "schedule_name": "random_3", "is_biased_choice":true,"side_choice": "RIGHT", "trial_number":43,"observed_reward":0,"unobserved_reward":0},{"RT":2313,"time": "2018-08-15 03:37:33pm", "schedule_type": "STATIC", "schedule_name": "random_3", "is_biased_choice":true,"side_choice": "RIGHT", "trial_number":44,"observed_reward":0,"unobserved_reward":0},{"RT":2407,"time": "2018-08-15 03:37:36pm", "schedule_type": "STATIC", "schedule_name": "random_3", "is_biased_choice":false,"side_choice": "LEFT", "trial_number":45,"observed_reward":1,"unobserved_reward":1},{"RT":2656,"time": "2018-08-15 03:37:38pm", "schedule_type": "STATIC", "schedule_name": "random_3", "is_biased_choice":false,"side_choice": "LEFT", "trial_number":46,"observed_reward":1,"unobserved_reward":1},{"RT":2505,"time": "2018-08-15 03:37:41pm", "schedule_type": "STATIC", "schedule_name": "random_3", "is_biased_choice":false,"side_choice": "LEFT", "trial_number":47,"observed_reward":0,"unobserved_reward":0},{"RT":2399,"time": "2018-08-15 03:37:43pm", "schedule_type": "STATIC", "schedule_name": "random_3", "is_biased_choice":false,"side_choice": "LEFT", "trial_number":48,"observed_reward":0,"unobserved_reward":0},{"RT":2249,"time": "2018-08-15 03:37:46pm", "schedule_type": "STATIC", "schedule_name": "random_3", "is_biased_choice":true,"side_choice": "RIGHT", "trial_number":49,"observed_reward":0,"unobserved_reward":0},{"RT":2288,"time": "2018-08-15 03:37:47pm", "schedule_type": "STATIC", "schedule_name": "random_3", "is_biased_choice":false,"side_choice": "LEFT", "trial_number":50,"observed_reward":0,"unobserved_reward":0},{"RT":2455,"time": "2018-08-15 03:37:50pm", "schedule_type": "STATIC", "schedule_name": "random_3", "is_biased_choice":false,"side_choice": "LEFT", "trial_number":51,"observed_reward":0,"unobserved_reward":1},{"RT":2321,"time": "2018-08-15 03:37:52pm", "schedule_type": "STATIC", "schedule_name": "random_3", "is_biased_choice":false,"side_choice": "LEFT", "trial_number":52,"observed_reward":1,"unobserved_reward":0},{"RT":2473,"time": "2018-08-15 03:37:55pm", "schedule_type": "STATIC", "schedule_name": "random_3", "is_biased_choice":false,"side_choice": "LEFT", "trial_number":53,"observed_reward":0,"unobserved_reward":0},{"RT":2863,"time": "2018-08-15 03:37:58pm", "schedule_type": "STATIC", "schedule_name": "random_3", "is_biased_choice":true,"side_choice": "RIGHT", "trial_number":54,"observed_reward":0,"unobserved_reward":1},{"RT":2546,"time": "2018-08-15 03:38:00pm", "schedule_type": "STATIC", "schedule_name": "random_3", "is_biased_choice":false,"side_choice": "LEFT", "trial_number":55,"observed_reward":0,"unobserved_reward":0},{"RT":2678,"time": "2018-08-15 03:38:03pm", "schedule_type": "STATIC", "schedule_name": "random_3", "is_biased_choice":true,"side_choice": "RIGHT", "trial_number":56,"observed_reward":1,"unobserved_reward":0},{"RT":2409,"time": "2018-08-15 03:38:06pm", "schedule_type": "STATIC", "schedule_name": "random_3", "is_biased_choice":false,"side_choice": "LEFT", "trial_number":57,"observed_reward":0,"unobserved_reward":0},{"RT":2926,"time": "2018-08-15 03:38:08pm", "schedule_type": "STATIC", "schedule_name": "random_3", "is_biased_choice":true,"side_choice": "RIGHT", "trial_number":58,"observed_reward":0,"unobserved_reward":1},{"RT":3001,"time": "2018-08-15 03:38:11pm", "schedule_type": "STATIC", "schedule_name": "random_3", "is_biased_choice":true,"side_choice": "RIGHT", "trial_number":59,"observed_reward":0,"unobserved_reward":1},{"RT":2624,"time": "2018-08-15 03:38:14pm", "schedule_type": "STATIC", "schedule_name": "random_3", "is_biased_choice":false,"side_choice": "LEFT", "trial_number":60,"observed_reward":0,"unobserved_reward":0},{"RT":2616,"time": "2018-08-15 03:38:17pm", "schedule_type": "STATIC", "schedule_name": "random_3", "is_biased_choice":true,"side_choice": "RIGHT", "trial_number":61,"observed_reward":0,"unobserved_reward":0},{"RT":2680,"time": "2018-08-15 03:38:19pm", "schedule_type": "STATIC", "schedule_name": "random_3", "is_biased_choice":false,"side_choice": "LEFT", "trial_number":62,"observed_reward":0,"unobserved_reward":0},{"RT":2832,"time": "2018-08-15 03:38:22pm", "schedule_type": "STATIC", "schedule_name": "random_3", "is_biased_choice":true,"side_choice": "RIGHT", "trial_number":63,"observed_reward":1,"unobserved_reward":1},{"RT":2632,"time": "2018-08-15 03:38:25pm", "schedule_type": "STATIC", "schedule_name": "random_3", "is_biased_choice":true,"side_choice": "RIGHT", "trial_number":64,"observed_reward":1,"unobserved_reward":0},{"RT":2400,"time": "2018-08-15 03:38:27pm", "schedule_type": "STATIC", "schedule_name": "random_3", "is_biased_choice":true,"side_choice": "RIGHT", "trial_number":65,"observed_reward":0,"unobserved_reward":1},{"RT":2775,"time": "2018-08-15 03:38:30pm", "schedule_type": "STATIC", "schedule_name": "random_3", "is_biased_choice":false,"side_choice": "LEFT", "trial_number":66,"observed_reward":0,"unobserved_reward":0},{"RT":2441,"time": "2018-08-15 03:38:32pm", "schedule_type": "STATIC", "schedule_name": "random_3", "is_biased_choice":true,"side_choice": "RIGHT", "trial_number":67,"observed_reward":0,"unobserved_reward":0},{"RT":2728,"time": "2018-08-15 03:38:35pm", "schedule_type": "STATIC", "schedule_name": "random_3", "is_biased_choice":true,"side_choice": "RIGHT", "trial_number":68,"observed_reward":0,"unobserved_reward":1},{"RT":2392,"time": "2018-08-15 03:38:37pm", "schedule_type": "STATIC", "schedule_name": "random_3", "is_biased_choice":true,"side_choice": "RIGHT", "trial_number":69,"observed_reward":0,"unobserved_reward":0},{"RT":2464,"time": "2018-08-15 03:38:40pm", "schedule_type": "STATIC", "schedule_name": "random_3", "is_biased_choice":false,"side_choice": "LEFT", "trial_number":70,"observed_reward":0,"unobserved_reward":0},{"RT":2488,"time": "2018-08-15 03:38:42pm", "schedule_type": "STATIC", "schedule_name": "random_3", "is_biased_choice":true,"side_choice": "RIGHT", "trial_number":71,"observed_reward":1,"unobserved_reward":0},{"RT":2440,"time": "2018-08-15 03:38:45pm", "schedule_type": "STATIC", "schedule_name": "random_3", "is_biased_choice":false,"side_choice": "LEFT", "trial_number":72,"observed_reward":0,"unobserved_reward":0},{"RT":2600,"time": "2018-08-15 03:38:47pm", "schedule_type": "STATIC", "schedule_name": "random_3", "is_biased_choice":true,"side_choice": "RIGHT", "trial_number":73,"observed_reward":1,"unobserved_reward":0},{"RT":9976,"time": "2018-08-15 03:38:58pm", "schedule_type": "STATIC", "schedule_name": "random_3", "is_biased_choice":false,"side_choice": "LEFT", "trial_number":74,"observed_reward":0,"unobserved_reward":0},{"RT":2463,"time": "2018-08-15 03:39:00pm", "schedule_type": "STATIC", "schedule_name": "random_3", "is_biased_choice":true,"side_choice": "RIGHT", "trial_number":75,"observed_reward":1,"unobserved_reward":0},{"RT":2440,"time": "2018-08-15 03:39:02pm", "schedule_type": "STATIC", "schedule_name": "random_3", "is_biased_choice":true,"side_choice": "RIGHT", "trial_number":76,"observed_reward":1,"unobserved_reward":0},{"RT":2416,"time": "2018-08-15 03:39:05pm", "schedule_type": "STATIC", "schedule_name": "random_3", "is_biased_choice":true,"side_choice": "RIGHT", "trial_number":77,"observed_reward":0,"unobserved_reward":0},{"RT":2489,"time": "2018-08-15 03:39:07pm", "schedule_type": "STATIC", "schedule_name": "random_3", "is_biased_choice":false,"side_choice": "LEFT", "trial_number":78,"observed_reward":0,"unobserved_reward":0},{"RT":2495,"time": "2018-08-15 03:39:10pm", "schedule_type": "STATIC", "schedule_name": "random_3", "is_biased_choice":true,"side_choice": "RIGHT", "trial_number":79,"observed_reward":0,"unobserved_reward":0},{"RT":2257,"time": "2018-08-15 03:39:12pm", "schedule_type": "STATIC", "schedule_name": "random_3", "is_biased_choice":false,"side_choice": "LEFT", "trial_number":80,"observed_reward":0,"unobserved_reward":0},{"RT":2311,"time": "2018-08-15 03:39:14pm", "schedule_type": "STATIC", "schedule_name": "random_3", "is_biased_choice":true,"side_choice": "RIGHT", "trial_number":81,"observed_reward":1,"unobserved_reward":0},{"RT":2384,"time": "2018-08-15 03:39:17pm", "schedule_type": "STATIC", "schedule_name": "random_3", "is_biased_choice":false,"side_choice": "LEFT", "trial_number":82,"observed_reward":1,"unobserved_reward":0},{"RT":2417,"time": "2018-08-15 03:39:19pm", "schedule_type": "STATIC", "schedule_name": "random_3", "is_biased_choice":false,"side_choice": "LEFT", "trial_number":83,"observed_reward":1,"unobserved_reward":1},{"RT":2303,"time": "2018-08-15 03:39:22pm", "schedule_type": "STATIC", "schedule_name": "random_3", "is_biased_choice":true,"side_choice": "RIGHT", "trial_number":84,"observed_reward":0,"unobserved_reward":0},{"RT":2633,"time": "2018-08-15 03:39:24pm", "schedule_type": "STATIC", "schedule_name": "random_3", "is_biased_choice":false,"side_choice": "LEFT", "trial_number":85,"observed_reward":0,"unobserved_reward":0},{"RT":2479,"time": "2018-08-15 03:39:27pm", "schedule_type": "STATIC", "schedule_name": "random_3", "is_biased_choice":true,"side_choice": "RIGHT", "trial_number":86,"observed_reward":1,"unobserved_reward":0},{"RT":2440,"time": "2018-08-15 03:39:29pm", "schedule_type": "STATIC", "schedule_name": "random_3", "is_biased_choice":true,"side_choice": "RIGHT", "trial_number":87,"observed_reward":0,"unobserved_reward":0},{"RT":2400,"time": "2018-08-15 03:39:31pm", "schedule_type": "STATIC", "schedule_name": "random_3", "is_biased_choice":true,"side_choice": "RIGHT", "trial_number":88,"observed_reward":0,"unobserved_reward":0},{"RT":2448,"time": "2018-08-15 03:39:34pm", "schedule_type": "STATIC", "schedule_name": "random_3", "is_biased_choice":false,"side_choice": "LEFT", "trial_number":89,"observed_reward":1,"unobserved_reward":0},{"RT":2353,"time": "2018-08-15 03:39:36pm", "schedule_type": "STATIC", "schedule_name": "random_3", "is_biased_choice":false,"side_choice": "LEFT", "trial_number":90,"observed_reward":1,"unobserved_reward":0},{"RT":2376,"time": "2018-08-15 03:39:38pm", "schedule_type": "STATIC", "schedule_name": "random_3", "is_biased_choice":false,"side_choice": "LEFT", "trial_number":91,"observed_reward":1,"unobserved_reward":0},{"RT":2278,"time": "2018-08-15 03:39:41pm", "schedule_type": "STATIC", "schedule_name": "random_3", "is_biased_choice":false,"side_choice": "LEFT", "trial_number":92,"observed_reward":1,"unobserved_reward":0},{"RT":2489,"time": "2018-08-15 03:39:43pm", "schedule_type": "STATIC", "schedule_name": "random_3", "is_biased_choice":false,"side_choice": "LEFT", "trial_number":93,"observed_reward":1,"unobserved_reward":0},{"RT":2287,"time": "2018-08-15 03:39:46pm", "schedule_type": "STATIC", "schedule_name": "random_3", "is_biased_choice":false,"side_choice": "LEFT", "trial_number":94,"observed_reward":0,"unobserved_reward":0},{"RT":2322,"time": "2018-08-15 03:39:48pm", "schedule_type": "STATIC", "schedule_name": "random_3", "is_biased_choice":true,"side_choice": "RIGHT", "trial_number":95,"observed_reward":0,"unobserved_reward":0},{"RT":2287,"time": "2018-08-15 03:39:50pm", "schedule_type": "STATIC", "schedule_name": "random_3", "is_biased_choice":false,"side_choice": "LEFT", "trial_number":96,"observed_reward":0,"unobserved_reward":0},{"RT":2520,"time": "2018-08-15 03:39:53pm", "schedule_type": "STATIC", "schedule_name": "random_3", "is_biased_choice":true,"side_choice": "RIGHT", "trial_number":97,"observed_reward":0,"unobserved_reward":0},{"RT":2167,"time": "2018-08-15 03:39:55pm", "schedule_type": "STATIC", "schedule_name": "random_3", "is_biased_choice":false,"side_choice": "LEFT", "trial_number":98,"observed_reward":0,"unobserved_reward":1},{"RT":2409,"time": "2018-08-15 03:39:57pm", "schedule_type": "STATIC", "schedule_name": "random_3", "is_biased_choice":true,"side_choice": "RIGHT", "trial_number":99,"observed_reward":1,"unobserved_reward":0},