[{"RT":4870,"time": "2018-08-15 03:33:48pm", "schedule_type": "STATIC", "schedule_name": "random_9", "is_biased_choice":false,"side_choice": "RIGHT", "trial_number":0,"observed_reward":1,"unobserved_reward":0},{"RT":4367,"time": "2018-08-15 03:33:53pm", "schedule_type": "STATIC", "schedule_name": "random_9", "is_biased_choice":false,"side_choice": "RIGHT", "trial_number":1,"observed_reward":0,"unobserved_reward":0},{"RT":3621,"time": "2018-08-15 03:33:56pm", "schedule_type": "STATIC", "schedule_name": "random_9", "is_biased_choice":true,"side_choice": "LEFT", "trial_number":2,"observed_reward":0,"unobserved_reward":0},{"RT":3344,"time": "2018-08-15 03:34:00pm", "schedule_type": "STATIC", "schedule_name": "random_9", "is_biased_choice":false,"side_choice": "RIGHT", "trial_number":3,"observed_reward":0,"unobserved_reward":0},{"RT":7295,"time": "2018-08-15 03:34:07pm", "schedule_type": "STATIC", "schedule_name": "random_9", "is_biased_choice":true,"side_choice": "LEFT", "trial_number":4,"observed_reward":0,"unobserved_reward":0},{"RT":3570,"time": "2018-08-15 03:34:10pm", "schedule_type": "STATIC", "schedule_name": "random_9", "is_biased_choice":false,"side_choice": "RIGHT", "trial_number":5,"observed_reward":0,"unobserved_reward":1},{"RT":3249,"time": "2018-08-15 03:34:14pm", "schedule_type": "STATIC", "schedule_name": "random_9", "is_biased_choice":false,"side_choice": "RIGHT", "trial_number":6,"observed_reward":0,"unobserved_reward":0},{"RT":3712,"time": "2018-08-15 03:34:17pm", "schedule_type": "STATIC", "schedule_name": "random_9", "is_biased_choice":true,"side_choice": "LEFT", "trial_number":7,"observed_reward":0,"unobserved_reward":0},{"RT":4558,"time": "2018-08-15 03:34:22pm", "schedule_type": "STATIC", "schedule_name": "random_9", "is_biased_choice":false,"side_choice": "RIGHT", "trial_number":8,"observed_reward":1,"unobserved_reward":0},{"RT":4186,"time": "2018-08-15 03:34:26pm", "schedule_type": "STATIC", "schedule_name": "random_9", "is_biased_choice":true,"side_choice": "LEFT", "trial_number":9,"observed_reward":0,"unobserved_reward":0},{"RT":3730,"time": "2018-08-15 03:34:30pm", "schedule_type": "STATIC", "schedule_name": "random_9", "is_biased_choice":false,"side_choice": "RIGHT", "trial_number":10,"observed_reward":1,"unobserved_reward":0},{"RT":3597,"time": "2018-08-15 03:34:33pm", "schedule_type": "STATIC", "schedule_name": "random_9", "is_biased_choice":false,"side_choice": "RIGHT", "trial_number":11,"observed_reward":0,"unobserved_reward":0},{"RT":3003,"time": "2018-08-15 03:34:36pm", "schedule_type": "STATIC", "schedule_name": "random_9", "is_biased_choice":true,"side_choice": "LEFT", "trial_number":12,"observed_reward":0,"unobserved_reward":0},{"RT":3012,"time": "2018-08-15 03:34:39pm", "schedule_type": "STATIC", "schedule_name": "random_9", "is_biased_choice":true,"side_choice": "LEFT", "trial_number":13,"observed_reward":0,"unobserved_reward":0},{"RT":3161,"time": "2018-08-15 03:34:43pm", "schedule_type": "STATIC", "schedule_name": "random_9", "is_biased_choice":false,"side_choice": "RIGHT", "trial_number":14,"observed_reward":0,"unobserved_reward":1},{"RT":3002,"time": "2018-08-15 03:34:46pm", "schedule_type": "STATIC", "schedule_name": "random_9", "is_biased_choice":true,"side_choice": "LEFT", "trial_number":15,"observed_reward":1,"unobserved_reward":1},{"RT":2935,"time": "2018-08-15 03:34:49pm", "schedule_type": "STATIC", "schedule_name": "random_9", "is_biased_choice":true,"side_choice": "LEFT", "trial_number":16,"observed_reward":0,"unobserved_reward":1},{"RT":2793,"time": "2018-08-15 03:34:51pm", "schedule_type": "STATIC", "schedule_name": "random_9", "is_biased_choice":false,"side_choice": "RIGHT", "trial_number":17,"observed_reward":0,"unobserved_reward":0},{"RT":2823,"time": "2018-08-15 03:34:54pm", "schedule_type": "STATIC", "schedule_name": "random_9", "is_biased_choice":true,"side_choice": "LEFT", "trial_number":18,"observed_reward":0,"unobserved_reward":0},{"RT":2862,"time": "2018-08-15 03:34:57pm", "schedule_type": "STATIC", "schedule_name": "random_9", "is_biased_choice":false,"side_choice": "RIGHT", "trial_number":19,"observed_reward":0,"unobserved_reward":0},{"RT":2931,"time": "2018-08-15 03:35:00pm", "schedule_type": "STATIC", "schedule_name": "random_9", "is_biased_choice":true,"side_choice": "LEFT", "trial_number":20,"observed_reward":1,"unobserved_reward":0},{"RT":2914,"time": "2018-08-15 03:35:03pm", "schedule_type": "STATIC", "schedule_name": "random_9", "is_biased_choice":false,"side_choice": "RIGHT", "trial_number":21,"observed_reward":0,"unobserved_reward":0},{"RT":2919,"time": "2018-08-15 03:35:06pm", "schedule_type": "STATIC", "schedule_name": "random_9", "is_biased_choice":true,"side_choice": "LEFT", "trial_number":22,"observed_reward":0,"unobserved_reward":0},{"RT":2847,"time": "2018-08-15 03:35:09pm", "schedule_type": "STATIC", "schedule_name": "random_9", "is_biased_choice":false,"side_choice": "RIGHT", "trial_number":23,"observed_reward":0,"unobserved_reward":0},{"RT":2767,"time": "2018-08-15 03:35:11pm", "schedule_type": "STATIC", "schedule_name": "random_9", "is_biased_choice":true,"side_choice": "LEFT", "trial_number":24,"observed_reward":0,"unobserved_reward":0},{"RT":2865,"time": "2018-08-15 03:35:14pm", "schedule_type": "STATIC", "schedule_name": "random_9", "is_biased_choice":false,"side_choice": "RIGHT", "trial_number":25,"observed_reward":1,"unobserved_reward":0},{"RT":3225,"time": "2018-08-15 03:35:18pm", "schedule_type": "STATIC", "schedule_name": "random_9", "is_biased_choice":true,"side_choice": "LEFT", "trial_number":26,"observed_reward":0,"unobserved_reward":0},{"RT":2793,"time": "2018-08-15 03:35:20pm", "schedule_type": "STATIC", "schedule_name": "random_9", "is_biased_choice":false,"side_choice": "RIGHT", "trial_number":27,"observed_reward":0,"unobserved_reward":0},{"RT":2892,"time": "2018-08-15 03:35:23pm", "schedule_type": "STATIC", "schedule_name": "random_9", "is_biased_choice":true,"side_choice": "LEFT", "trial_number":28,"observed_reward":0,"unobserved_reward":0},{"RT":2923,"time": "2018-08-15 03:35:26pm", "schedule_type": "STATIC", "schedule_name": "random_9", "is_biased_choice":false,"side_choice": "RIGHT", "trial_number":29,"observed_reward":0,"unobserved_reward":0},{"RT":3001,"time": "2018-08-15 03:35:29pm", "schedule_type": "STATIC", "schedule_name": "random_9", "is_biased_choice":true,"side_choice": "LEFT", "trial_number":30,"observed_reward":0,"unobserved_reward":1},{"RT":2779,"time": "2018-08-15 03:35:32pm", "schedule_type": "STATIC", "schedule_name": "random_9", "is_biased_choice":false,"side_choice": "RIGHT", "trial_number":31,"observed_reward":1,"unobserved_reward":0},{"RT":3421,"time": "2018-08-15 03:35:35pm", "schedule_type": "STATIC", "schedule_name": "random_9", "is_biased_choice":true,"side_choice": "LEFT", "trial_number":32,"observed_reward":0,"unobserved_reward":1},{"RT":3596,"time": "2018-08-15 03:35:39pm", "schedule_type": "STATIC", "schedule_name": "random_9", "is_biased_choice":false,"side_choice": "RIGHT", "trial_number":33,"observed_reward":0,"unobserved_reward":0},{"RT":3101,"time": "2018-08-15 03:35:42pm", "schedule_type": "STATIC", "schedule_name": "random_9", "is_biased_choice":true,"side_choice": "LEFT", "trial_number":34,"observed_reward":0,"unobserved_reward":0},{"RT":3548,"time": "2018-08-15 03:35:46pm", "schedule_type": "STATIC", "schedule_name": "random_9", "is_biased_choice":false,"side_choice": "RIGHT", "trial_number":35,"observed_reward":0,"unobserved_reward":0},{"RT":2935,"time": "2018-08-15 03:35:48pm", "schedule_type": "STATIC", "schedule_name": "random_9", "is_biased_choice":true,"side_choice": "LEFT", "trial_number":36,"observed_reward":0,"unobserved_reward":1},{"RT":3352,"time": "2018-08-15 03:35:52pm", "schedule_type": "STATIC", "schedule_name": "random_9", "is_biased_choice":false,"side_choice": "RIGHT", "trial_number":37,"observed_reward":0,"unobserved_reward":0},{"RT":3421,"time": "2018-08-15 03:35:55pm", "schedule_type": "STATIC", "schedule_name": "random_9", "is_biased_choice":true,"side_choice": "LEFT", "trial_number":38,"observed_reward":1,"unobserved_reward":1},{"RT":3035,"time": "2018-08-15 03:35:58pm", "schedule_type": "STATIC", "schedule_name": "random_9", "is_biased_choice":false,"side_choice": "RIGHT", "trial_number":39,"observed_reward":0,"unobserved_reward":0},{"RT":3903,"time": "2018-08-15 03:36:02pm", "schedule_type": "STATIC", "schedule_name": "random_9", "is_biased_choice":true,"side_choice": "LEFT", "trial_number":40,"observed_reward":0,"unobserved_reward":0},{"RT":3451,"time": "2018-08-15 03:36:06pm", "schedule_type": "STATIC", "schedule_name": "random_9", "is_biased_choice":false,"side_choice": "RIGHT", "trial_number":41,"observed_reward":0,"unobserved_reward":1},{"RT":4064,"time": "2018-08-15 03:36:10pm", "schedule_type": "STATIC", "schedule_name": "random_9", "is_biased_choice":true,"side_choice": "LEFT", "trial_number":42,"observed_reward":1,"unobserved_reward":1},{"RT":3466,"time": "2018-08-15 03:36:13pm", "schedule_type": "STATIC", "schedule_name": "random_9", "is_biased_choice":false,"side_choice": "RIGHT", "trial_number":43,"observed_reward":0,"unobserved_reward":0},{"RT":4038,"time": "2018-08-15 03:36:17pm", "schedule_type": "STATIC", "schedule_name": "random_9", "is_biased_choice":false,"side_choice": "RIGHT", "trial_number":44,"observed_reward":0,"unobserved_reward":1},{"RT":20909,"time": "2018-08-15 03:36:38pm", "schedule_type": "STATIC", "schedule_name": "random_9", "is_biased_choice":false,"side_choice": "RIGHT", "trial_number":45,"observed_reward":0,"unobserved_reward":0},{"RT":4091,"time": "2018-08-15 03:36:42pm", "schedule_type": "STATIC", "schedule_name": "random_9", "is_biased_choice":true,"side_choice": "LEFT", "trial_number":46,"observed_reward":0,"unobserved_reward":0},{"RT":4370,"time": "2018-08-15 03:36:47pm", "schedule_type": "STATIC", "schedule_name": "random_9", "is_biased_choice":false,"side_choice": "RIGHT", "trial_number":47,"observed_reward":0,"unobserved_reward":1},{"RT":3150,"time": "2018-08-15 03:36:50pm", "schedule_type": "STATIC", "schedule_name": "random_9", "is_biased_choice":true,"side_choice": "LEFT", "trial_number":48,"observed_reward":1,"unobserved_reward":0},{"RT":3110,"time": "2018-08-15 03:36:53pm", "schedule_type": "STATIC", "schedule_name": "random_9", "is_biased_choice":false,"side_choice": "RIGHT", "trial_number":49,"observed_reward":0,"unobserved_reward":0},{"RT":3906,"time": "2018-08-15 03:36:57pm", "schedule_type": "STATIC", "schedule_name": "random_9", "is_biased_choice":true,"side_choice": "LEFT", "trial_number":50,"observed_reward":0,"unobserved_reward":0},{"RT":2964,"time": "2018-08-15 03:37:00pm", "schedule_type": "STATIC", "schedule_name": "random_9", "is_biased_choice":false,"side_choice": "RIGHT", "trial_number":51,"observed_reward":0,"unobserved_reward":0},{"RT":4614,"time": "2018-08-15 03:37:04pm", "schedule_type": "STATIC", "schedule_name": "random_9", "is_biased_choice":true,"side_choice": "LEFT", "trial_number":52,"observed_reward":0,"unobserved_reward":0},{"RT":3768,"time": "2018-08-15 03:37:08pm", "schedule_type": "STATIC", "schedule_name": "random_9", "is_biased_choice":false,"side_choice": "RIGHT", "trial_number":53,"observed_reward":0,"unobserved_reward":1},{"RT":58109,"time": "2018-08-15 03:38:06pm", "schedule_type": "STATIC", "schedule_name": "random_9", "is_biased_choice":false,"side_choice": "RIGHT", "trial_number":54,"observed_reward":0,"unobserved_reward":1},{"RT":3269,"time": "2018-08-15 03:38:09pm", "schedule_type": "STATIC", "schedule_name": "random_9", "is_biased_choice":true,"side_choice": "LEFT", "trial_number":55,"observed_reward":0,"unobserved_reward":0},{"RT":3083,"time": "2018-08-15 03:38:13pm", "schedule_type": "STATIC", "schedule_name": "random_9", "is_biased_choice":false,"side_choice": "RIGHT", "trial_number":56,"observed_reward":0,"unobserved_reward":1},{"RT":3063,"time": "2018-08-15 03:38:16pm", "schedule_type": "STATIC", "schedule_name": "random_9", "is_biased_choice":true,"side_choice": "LEFT", "trial_number":57,"observed_reward":0,"unobserved_reward":0},{"RT":3010,"time": "2018-08-15 03:38:19pm", "schedule_type": "STATIC", "schedule_name": "random_9", "is_biased_choice":true,"side_choice": "LEFT", "trial_number":58,"observed_reward":0,"unobserved_reward":0},{"RT":2876,"time": "2018-08-15 03:38:22pm", "schedule_type": "STATIC", "schedule_name": "random_9", "is_biased_choice":false,"side_choice": "RIGHT", "trial_number":59,"observed_reward":0,"unobserved_reward":0},{"RT":2931,"time": "2018-08-15 03:38:24pm", "schedule_type": "STATIC", "schedule_name": "random_9", "is_biased_choice":true,"side_choice": "LEFT", "trial_number":60,"observed_reward":0,"unobserved_reward":0},{"RT":3344,"time": "2018-08-15 03:38:28pm", "schedule_type": "STATIC", "schedule_name": "random_9", "is_biased_choice":false,"side_choice": "RIGHT", "trial_number":61,"observed_reward":1,"unobserved_reward":0},{"RT":3264,"time": "2018-08-15 03:38:31pm", "schedule_type": "STATIC", "schedule_name": "random_9", "is_biased_choice":true,"side_choice": "LEFT", "trial_number":62,"observed_reward":1,"unobserved_reward":0},{"RT":3401,"time": "2018-08-15 03:38:34pm", "schedule_type": "STATIC", "schedule_name": "random_9", "is_biased_choice":false,"side_choice": "RIGHT", "trial_number":63,"observed_reward":1,"unobserved_reward":0},{"RT":2903,"time": "2018-08-15 03:38:37pm", "schedule_type": "STATIC", "schedule_name": "random_9", "is_biased_choice":true,"side_choice": "LEFT", "trial_number":64,"observed_reward":0,"unobserved_reward":1},{"RT":3300,"time": "2018-08-15 03:38:41pm", "schedule_type": "STATIC", "schedule_name": "random_9", "is_biased_choice":false,"side_choice": "RIGHT", "trial_number":65,"observed_reward":0,"unobserved_reward":0},{"RT":3004,"time": "2018-08-15 03:38:44pm", "schedule_type": "STATIC", "schedule_name": "random_9", "is_biased_choice":true,"side_choice": "LEFT", "trial_number":66,"observed_reward":1,"unobserved_reward":0},{"RT":2974,"time": "2018-08-15 03:38:47pm", "schedule_type": "STATIC", "schedule_name": "random_9", "is_biased_choice":false,"side_choice": "RIGHT", "trial_number":67,"observed_reward":1,"unobserved_reward":0},{"RT":3125,"time": "2018-08-15 03:38:50pm", "schedule_type": "STATIC", "schedule_name": "random_9", "is_biased_choice":false,"side_choice": "RIGHT", "trial_number":68,"observed_reward":0,"unobserved_reward":0},{"RT":3077,"time": "2018-08-15 03:38:53pm", "schedule_type": "STATIC", "schedule_name": "random_9", "is_biased_choice":true,"side_choice": "LEFT", "trial_number":69,"observed_reward":0,"unobserved_reward":1},{"RT":2944,"time": "2018-08-15 03:38:56pm", "schedule_type": "STATIC", "schedule_name": "random_9", "is_biased_choice":true,"side_choice": "LEFT", "trial_number":70,"observed_reward":0,"unobserved_reward":1},{"RT":2960,"time": "2018-08-15 03:38:59pm", "schedule_type": "STATIC", "schedule_name": "random_9", "is_biased_choice":false,"side_choice": "RIGHT", "trial_number":71,"observed_reward":0,"unobserved_reward":0},{"RT":2806,"time": "2018-08-15 03:39:02pm", "schedule_type": "STATIC", "schedule_name": "random_9", "is_biased_choice":true,"side_choice": "LEFT", "trial_number":72,"observed_reward":0,"unobserved_reward":0},{"RT":2885,"time": "2018-08-15 03:39:04pm", "schedule_type": "STATIC", "schedule_name": "random_9", "is_biased_choice":false,"side_choice": "RIGHT", "trial_number":73,"observed_reward":1,"unobserved_reward":0},{"RT":2884,"time": "2018-08-15 03:39:07pm", "schedule_type": "STATIC", "schedule_name": "random_9", "is_biased_choice":true,"side_choice": "LEFT", "trial_number":74,"observed_reward":0,"unobserved_reward":1},{"RT":2844,"time": "2018-08-15 03:39:10pm", "schedule_type": "STATIC", "schedule_name": "random_9", "is_biased_choice":false,"side_choice": "RIGHT", "trial_number":75,"observed_reward":1,"unobserved_reward":0},{"RT":3090,"time": "2018-08-15 03:39:13pm", "schedule_type": "STATIC", "schedule_name": "random_9", "is_biased_choice":true,"side_choice": "LEFT", "trial_number":76,"observed_reward":0,"unobserved_reward":0},{"RT":2883,"time": "2018-08-15 03:39:16pm", "schedule_type": "STATIC", "schedule_name": "random_9", "is_biased_choice":false,"side_choice": "RIGHT", "trial_number":77,"observed_reward":0,"unobserved_reward":0},{"RT":2898,"time": "2018-08-15 03:39:19pm", "schedule_type": "STATIC", "schedule_name": "random_9", "is_biased_choice":true,"side_choice": "LEFT", "trial_number":78,"observed_reward":1,"unobserved_reward":0},{"RT":2829,"time": "2018-08-15 03:39:22pm", "schedule_type": "STATIC", "schedule_name": "random_9", "is_biased_choice":false,"side_choice": "RIGHT", "trial_number":79,"observed_reward":0,"unobserved_reward":0},{"RT":2930,"time": "2018-08-15 03:39:25pm", "schedule_type": "STATIC", "schedule_name": "random_9", "is_biased_choice":true,"side_choice": "LEFT", "trial_number":80,"observed_reward":0,"unobserved_reward":1},{"RT":3191,"time": "2018-08-15 03:39:28pm", "schedule_type": "STATIC", "schedule_name": "random_9", "is_biased_choice":false,"side_choice": "RIGHT", "trial_number":81,"observed_reward":0,"unobserved_reward":1},{"RT":2863,"time": "2018-08-15 03:39:31pm", "schedule_type": "STATIC", "schedule_name": "random_9", "is_biased_choice":true,"side_choice": "LEFT", "trial_number":82,"observed_reward":0,"unobserved_reward":1},{"RT":2896,"time": "2018-08-15 03:39:34pm", "schedule_type": "STATIC", "schedule_name": "random_9", "is_biased_choice":false,"side_choice": "RIGHT", "trial_number":83,"observed_reward":0,"unobserved_reward":1},{"RT":3050,"time": "2018-08-15 03:39:37pm", "schedule_type": "STATIC", "schedule_name": "random_9", "is_biased_choice":true,"side_choice": "LEFT", "trial_number":84,"observed_reward":0,"unobserved_reward":0},{"RT":3021,"time": "2018-08-15 03:39:40pm", "schedule_type": "STATIC", "schedule_name": "random_9", "is_biased_choice":false,"side_choice": "RIGHT", "trial_number":85,"observed_reward":0,"unobserved_reward":0},{"RT":3017,"time": "2018-08-15 03:39:43pm", "schedule_type": "STATIC", "schedule_name": "random_9", "is_biased_choice":true,"side_choice": "LEFT", "trial_number":86,"observed_reward":0,"unobserved_reward":0},{"RT":3554,"time": "2018-08-15 03:39:46pm", "schedule_type": "STATIC", "schedule_name": "random_9", "is_biased_choice":false,"side_choice": "RIGHT", "trial_number":87,"observed_reward":0,"unobserved_reward":1},{"RT":2905,"time": "2018-08-15 03:39:49pm", "schedule_type": "STATIC", "schedule_name": "random_9", "is_biased_choice":true,"side_choice": "LEFT", "trial_number":88,"observed_reward":0,"unobserved_reward":0},{"RT":2892,"time": "2018-08-15 03:39:52pm", "schedule_type": "STATIC", "schedule_name": "random_9", "is_biased_choice":false,"side_choice": "RIGHT", "trial_number":89,"observed_reward":0,"unobserved_reward":0},{"RT":3687,"time": "2018-08-15 03:39:56pm", "schedule_type": "STATIC", "schedule_name": "random_9", "is_biased_choice":true,"side_choice": "LEFT", "trial_number":90,"observed_reward":1,"unobserved_reward":0},{"RT":2893,"time": "2018-08-15 03:39:59pm", "schedule_type": "STATIC", "schedule_name": "random_9", "is_biased_choice":false,"side_choice": "RIGHT", "trial_number":91,"observed_reward":0,"unobserved_reward":1},{"RT":2940,"time": "2018-08-15 03:40:02pm", "schedule_type": "STATIC", "schedule_name": "random_9", "is_biased_choice":true,"side_choice": "LEFT", "trial_number":92,"observed_reward":1,"unobserved_reward":0},{"RT":3267,"time": "2018-08-15 03:40:05pm", "schedule_type": "STATIC", "schedule_name": "random_9", "is_biased_choice":false,"side_choice": "RIGHT", "trial_number":93,"observed_reward":0,"unobserved_reward":1},{"RT":3014,"time": "2018-08-15 03:40:08pm", "schedule_type": "STATIC", "schedule_name": "random_9", "is_biased_choice":true,"side_choice": "LEFT", "trial_number":94,"observed_reward":0,"unobserved_reward":1},{"RT":3057,"time": "2018-08-15 03:40:11pm", "schedule_type": "STATIC", "schedule_name": "random_9", "is_biased_choice":false,"side_choice": "RIGHT", "trial_number":95,"observed_reward":0,"unobserved_reward":1},{"RT":3021,"time": "2018-08-15 03:40:14pm", "schedule_type": "STATIC", "schedule_name": "random_9", "is_biased_choice":true,"side_choice": "LEFT", "trial_number":96,"observed_reward":0,"unobserved_reward":0},{"RT":2770,"time": "2018-08-15 03:40:17pm", "schedule_type": "STATIC", "schedule_name": "random_9", "is_biased_choice":false,"side_choice": "RIGHT", "trial_number":97,"observed_reward":0,"unobserved_reward":1},{"RT":5207,"time": "2018-08-15 03:40:22pm", "schedule_type": "STATIC", "schedule_name": "random_9", "is_biased_choice":true,"side_choice": "LEFT", "trial_number":98,"observed_reward":0,"unobserved_reward":1},