[{"RT":16790,"time": "2018-08-15 01:42:51pm", "schedule_type": "STATIC", "schedule_name": "random_9", "is_biased_choice":true,"side_choice": "LEFT", "trial_number":0,"observed_reward":0,"unobserved_reward":1},{"RT":3927,"time": "2018-08-15 01:42:55pm", "schedule_type": "STATIC", "schedule_name": "random_9", "is_biased_choice":false,"side_choice": "RIGHT", "trial_number":1,"observed_reward":0,"unobserved_reward":0},{"RT":3063,"time": "2018-08-15 01:42:58pm", "schedule_type": "STATIC", "schedule_name": "random_9", "is_biased_choice":true,"side_choice": "LEFT", "trial_number":2,"observed_reward":0,"unobserved_reward":0},{"RT":4426,"time": "2018-08-15 01:43:02pm", "schedule_type": "STATIC", "schedule_name": "random_9", "is_biased_choice":false,"side_choice": "RIGHT", "trial_number":3,"observed_reward":0,"unobserved_reward":0},{"RT":10446,"time": "2018-08-15 01:43:13pm", "schedule_type": "STATIC", "schedule_name": "random_9", "is_biased_choice":true,"side_choice": "LEFT", "trial_number":4,"observed_reward":0,"unobserved_reward":0},{"RT":9104,"time": "2018-08-15 01:43:22pm", "schedule_type": "STATIC", "schedule_name": "random_9", "is_biased_choice":true,"side_choice": "LEFT", "trial_number":5,"observed_reward":1,"unobserved_reward":0},{"RT":3584,"time": "2018-08-15 01:43:26pm", "schedule_type": "STATIC", "schedule_name": "random_9", "is_biased_choice":false,"side_choice": "RIGHT", "trial_number":6,"observed_reward":0,"unobserved_reward":0},{"RT":3403,"time": "2018-08-15 01:43:29pm", "schedule_type": "STATIC", "schedule_name": "random_9", "is_biased_choice":true,"side_choice": "LEFT", "trial_number":7,"observed_reward":0,"unobserved_reward":0},{"RT":2993,"time": "2018-08-15 01:43:32pm", "schedule_type": "STATIC", "schedule_name": "random_9", "is_biased_choice":false,"side_choice": "RIGHT", "trial_number":8,"observed_reward":1,"unobserved_reward":0},{"RT":3342,"time": "2018-08-15 01:43:35pm", "schedule_type": "STATIC", "schedule_name": "random_9", "is_biased_choice":false,"side_choice": "RIGHT", "trial_number":9,"observed_reward":0,"unobserved_reward":0},{"RT":4520,"time": "2018-08-15 01:43:39pm", "schedule_type": "STATIC", "schedule_name": "random_9", "is_biased_choice":true,"side_choice": "LEFT", "trial_number":10,"observed_reward":0,"unobserved_reward":1},{"RT":6416,"time": "2018-08-15 01:43:46pm", "schedule_type": "STATIC", "schedule_name": "random_9", "is_biased_choice":true,"side_choice": "LEFT", "trial_number":11,"observed_reward":0,"unobserved_reward":0},{"RT":4728,"time": "2018-08-15 01:43:51pm", "schedule_type": "STATIC", "schedule_name": "random_9", "is_biased_choice":false,"side_choice": "RIGHT", "trial_number":12,"observed_reward":0,"unobserved_reward":0},{"RT":4015,"time": "2018-08-15 01:43:55pm", "schedule_type": "STATIC", "schedule_name": "random_9", "is_biased_choice":false,"side_choice": "RIGHT", "trial_number":13,"observed_reward":0,"unobserved_reward":0},{"RT":2952,"time": "2018-08-15 01:43:58pm", "schedule_type": "STATIC", "schedule_name": "random_9", "is_biased_choice":true,"side_choice": "LEFT", "trial_number":14,"observed_reward":1,"unobserved_reward":0},{"RT":2984,"time": "2018-08-15 01:44:01pm", "schedule_type": "STATIC", "schedule_name": "random_9", "is_biased_choice":true,"side_choice": "LEFT", "trial_number":15,"observed_reward":1,"unobserved_reward":1},{"RT":3472,"time": "2018-08-15 01:44:06pm", "schedule_type": "STATIC", "schedule_name": "random_9", "is_biased_choice":true,"side_choice": "LEFT", "trial_number":16,"observed_reward":0,"unobserved_reward":1},{"RT":2896,"time": "2018-08-15 01:44:07pm", "schedule_type": "STATIC", "schedule_name": "random_9", "is_biased_choice":false,"side_choice": "RIGHT", "trial_number":17,"observed_reward":0,"unobserved_reward":0},{"RT":3368,"time": "2018-08-15 01:44:11pm", "schedule_type": "STATIC", "schedule_name": "random_9", "is_biased_choice":true,"side_choice": "LEFT", "trial_number":18,"observed_reward":0,"unobserved_reward":0},{"RT":2982,"time": "2018-08-15 01:44:13pm", "schedule_type": "STATIC", "schedule_name": "random_9", "is_biased_choice":true,"side_choice": "LEFT", "trial_number":19,"observed_reward":0,"unobserved_reward":0},{"RT":2745,"time": "2018-08-15 01:44:16pm", "schedule_type": "STATIC", "schedule_name": "random_9", "is_biased_choice":true,"side_choice": "LEFT", "trial_number":20,"observed_reward":1,"unobserved_reward":0},{"RT":4873,"time": "2018-08-15 01:44:23pm", "schedule_type": "STATIC", "schedule_name": "random_9", "is_biased_choice":true,"side_choice": "LEFT", "trial_number":21,"observed_reward":0,"unobserved_reward":0},{"RT":2975,"time": "2018-08-15 01:44:25pm", "schedule_type": "STATIC", "schedule_name": "random_9", "is_biased_choice":false,"side_choice": "RIGHT", "trial_number":22,"observed_reward":0,"unobserved_reward":0},{"RT":3120,"time": "2018-08-15 01:44:27pm", "schedule_type": "STATIC", "schedule_name": "random_9", "is_biased_choice":true,"side_choice": "LEFT", "trial_number":23,"observed_reward":0,"unobserved_reward":0},{"RT":2418,"time": "2018-08-15 01:44:29pm", "schedule_type": "STATIC", "schedule_name": "random_9", "is_biased_choice":true,"side_choice": "LEFT", "trial_number":24,"observed_reward":0,"unobserved_reward":0},{"RT":3400,"time": "2018-08-15 01:44:33pm", "schedule_type": "STATIC", "schedule_name": "random_9", "is_biased_choice":true,"side_choice": "LEFT", "trial_number":25,"observed_reward":0,"unobserved_reward":1},{"RT":2720,"time": "2018-08-15 01:44:36pm", "schedule_type": "STATIC", "schedule_name": "random_9", "is_biased_choice":false,"side_choice": "RIGHT", "trial_number":26,"observed_reward":0,"unobserved_reward":0},{"RT":2456,"time": "2018-08-15 01:44:38pm", "schedule_type": "STATIC", "schedule_name": "random_9", "is_biased_choice":true,"side_choice": "LEFT", "trial_number":27,"observed_reward":0,"unobserved_reward":0},{"RT":2296,"time": "2018-08-15 01:44:40pm", "schedule_type": "STATIC", "schedule_name": "random_9", "is_biased_choice":false,"side_choice": "RIGHT", "trial_number":28,"observed_reward":0,"unobserved_reward":0},{"RT":2512,"time": "2018-08-15 01:44:43pm", "schedule_type": "STATIC", "schedule_name": "random_9", "is_biased_choice":true,"side_choice": "LEFT", "trial_number":29,"observed_reward":0,"unobserved_reward":0},{"RT":7720,"time": "2018-08-15 01:44:51pm", "schedule_type": "STATIC", "schedule_name": "random_9", "is_biased_choice":true,"side_choice": "LEFT", "trial_number":30,"observed_reward":0,"unobserved_reward":1},{"RT":2735,"time": "2018-08-15 01:44:53pm", "schedule_type": "STATIC", "schedule_name": "random_9", "is_biased_choice":false,"side_choice": "RIGHT", "trial_number":31,"observed_reward":1,"unobserved_reward":0},{"RT":2745,"time": "2018-08-15 01:44:56pm", "schedule_type": "STATIC", "schedule_name": "random_9", "is_biased_choice":false,"side_choice": "RIGHT", "trial_number":32,"observed_reward":1,"unobserved_reward":0},{"RT":2503,"time": "2018-08-15 01:44:59pm", "schedule_type": "STATIC", "schedule_name": "random_9", "is_biased_choice":false,"side_choice": "RIGHT", "trial_number":33,"observed_reward":0,"unobserved_reward":0},{"RT":2189,"time": "2018-08-15 01:45:01pm", "schedule_type": "STATIC", "schedule_name": "random_9", "is_biased_choice":true,"side_choice": "LEFT", "trial_number":34,"observed_reward":0,"unobserved_reward":0},{"RT":10874,"time": "2018-08-15 01:45:12pm", "schedule_type": "STATIC", "schedule_name": "random_9", "is_biased_choice":false,"side_choice": "RIGHT", "trial_number":35,"observed_reward":0,"unobserved_reward":0},{"RT":2769,"time": "2018-08-15 01:45:14pm", "schedule_type": "STATIC", "schedule_name": "random_9", "is_biased_choice":true,"side_choice": "LEFT", "trial_number":36,"observed_reward":0,"unobserved_reward":1},{"RT":3496,"time": "2018-08-15 01:45:18pm", "schedule_type": "STATIC", "schedule_name": "random_9", "is_biased_choice":true,"side_choice": "LEFT", "trial_number":37,"observed_reward":0,"unobserved_reward":0},{"RT":5271,"time": "2018-08-15 01:45:25pm", "schedule_type": "STATIC", "schedule_name": "random_9", "is_biased_choice":true,"side_choice": "LEFT", "trial_number":38,"observed_reward":1,"unobserved_reward":1},{"RT":2780,"time": "2018-08-15 01:45:27pm", "schedule_type": "STATIC", "schedule_name": "random_9", "is_biased_choice":true,"side_choice": "LEFT", "trial_number":39,"observed_reward":0,"unobserved_reward":0},{"RT":2919,"time": "2018-08-15 01:45:29pm", "schedule_type": "STATIC", "schedule_name": "random_9", "is_biased_choice":true,"side_choice": "LEFT", "trial_number":40,"observed_reward":0,"unobserved_reward":0},{"RT":3231,"time": "2018-08-15 01:45:32pm", "schedule_type": "STATIC", "schedule_name": "random_9", "is_biased_choice":true,"side_choice": "LEFT", "trial_number":41,"observed_reward":1,"unobserved_reward":0},{"RT":2520,"time": "2018-08-15 01:45:35pm", "schedule_type": "STATIC", "schedule_name": "random_9", "is_biased_choice":true,"side_choice": "LEFT", "trial_number":42,"observed_reward":1,"unobserved_reward":1},{"RT":6415,"time": "2018-08-15 01:45:41pm", "schedule_type": "STATIC", "schedule_name": "random_9", "is_biased_choice":false,"side_choice": "RIGHT", "trial_number":43,"observed_reward":0,"unobserved_reward":0},{"RT":3913,"time": "2018-08-15 01:45:45pm", "schedule_type": "STATIC", "schedule_name": "random_9", "is_biased_choice":true,"side_choice": "LEFT", "trial_number":44,"observed_reward":1,"unobserved_reward":0},{"RT":3144,"time": "2018-08-15 01:45:49pm", "schedule_type": "STATIC", "schedule_name": "random_9", "is_biased_choice":false,"side_choice": "RIGHT", "trial_number":45,"observed_reward":0,"unobserved_reward":0},{"RT":2936,"time": "2018-08-15 01:45:51pm", "schedule_type": "STATIC", "schedule_name": "random_9", "is_biased_choice":true,"side_choice": "LEFT", "trial_number":46,"observed_reward":0,"unobserved_reward":0},{"RT":3144,"time": "2018-08-15 01:45:54pm", "schedule_type": "STATIC", "schedule_name": "random_9", "is_biased_choice":false,"side_choice": "RIGHT", "trial_number":47,"observed_reward":0,"unobserved_reward":1},{"RT":2783,"time": "2018-08-15 01:45:57pm", "schedule_type": "STATIC", "schedule_name": "random_9", "is_biased_choice":true,"side_choice": "LEFT", "trial_number":48,"observed_reward":1,"unobserved_reward":0},{"RT":2936,"time": "2018-08-15 01:46:00pm", "schedule_type": "STATIC", "schedule_name": "random_9", "is_biased_choice":true,"side_choice": "LEFT", "trial_number":49,"observed_reward":0,"unobserved_reward":0},{"RT":2666,"time": "2018-08-15 01:46:03pm", "schedule_type": "STATIC", "schedule_name": "random_9", "is_biased_choice":true,"side_choice": "LEFT", "trial_number":50,"observed_reward":0,"unobserved_reward":0},{"RT":3055,"time": "2018-08-15 01:46:06pm", "schedule_type": "STATIC", "schedule_name": "random_9", "is_biased_choice":true,"side_choice": "LEFT", "trial_number":51,"observed_reward":0,"unobserved_reward":0},{"RT":3033,"time": "2018-08-15 01:46:09pm", "schedule_type": "STATIC", "schedule_name": "random_9", "is_biased_choice":true,"side_choice": "LEFT", "trial_number":52,"observed_reward":0,"unobserved_reward":0},{"RT":3054,"time": "2018-08-15 01:46:12pm", "schedule_type": "STATIC", "schedule_name": "random_9", "is_biased_choice":false,"side_choice": "RIGHT", "trial_number":53,"observed_reward":0,"unobserved_reward":1},{"RT":3431,"time": "2018-08-15 01:46:15pm", "schedule_type": "STATIC", "schedule_name": "random_9", "is_biased_choice":false,"side_choice": "RIGHT", "trial_number":54,"observed_reward":0,"unobserved_reward":1},{"RT":2697,"time": "2018-08-15 01:46:18pm", "schedule_type": "STATIC", "schedule_name": "random_9", "is_biased_choice":true,"side_choice": "LEFT", "trial_number":55,"observed_reward":0,"unobserved_reward":0},{"RT":2944,"time": "2018-08-15 01:46:21pm", "schedule_type": "STATIC", "schedule_name": "random_9", "is_biased_choice":true,"side_choice": "LEFT", "trial_number":56,"observed_reward":1,"unobserved_reward":0},{"RT":4040,"time": "2018-08-15 01:46:26pm", "schedule_type": "STATIC", "schedule_name": "random_9", "is_biased_choice":true,"side_choice": "LEFT", "trial_number":57,"observed_reward":0,"unobserved_reward":0},{"RT":3448,"time": "2018-08-15 01:46:28pm", "schedule_type": "STATIC", "schedule_name": "random_9", "is_biased_choice":false,"side_choice": "RIGHT", "trial_number":58,"observed_reward":0,"unobserved_reward":0},{"RT":2938,"time": "2018-08-15 01:46:31pm", "schedule_type": "STATIC", "schedule_name": "random_9", "is_biased_choice":true,"side_choice": "LEFT", "trial_number":59,"observed_reward":0,"unobserved_reward":0},{"RT":2993,"time": "2018-08-15 01:46:34pm", "schedule_type": "STATIC", "schedule_name": "random_9", "is_biased_choice":true,"side_choice": "LEFT", "trial_number":60,"observed_reward":0,"unobserved_reward":0},{"RT":3334,"time": "2018-08-15 01:46:38pm", "schedule_type": "STATIC", "schedule_name": "random_9", "is_biased_choice":false,"side_choice": "RIGHT", "trial_number":61,"observed_reward":1,"unobserved_reward":0},{"RT":2441,"time": "2018-08-15 01:46:40pm", "schedule_type": "STATIC", "schedule_name": "random_9", "is_biased_choice":false,"side_choice": "RIGHT", "trial_number":62,"observed_reward":0,"unobserved_reward":1},{"RT":2880,"time": "2018-08-15 01:46:43pm", "schedule_type": "STATIC", "schedule_name": "random_9", "is_biased_choice":true,"side_choice": "LEFT", "trial_number":63,"observed_reward":0,"unobserved_reward":1},{"RT":2936,"time": "2018-08-15 01:46:46pm", "schedule_type": "STATIC", "schedule_name": "random_9", "is_biased_choice":false,"side_choice": "RIGHT", "trial_number":64,"observed_reward":1,"unobserved_reward":0},{"RT":2903,"time": "2018-08-15 01:46:49pm", "schedule_type": "STATIC", "schedule_name": "random_9", "is_biased_choice":false,"side_choice": "RIGHT", "trial_number":65,"observed_reward":0,"unobserved_reward":0},{"RT":3152,"time": "2018-08-15 01:46:52pm", "schedule_type": "STATIC", "schedule_name": "random_9", "is_biased_choice":true,"side_choice": "LEFT", "trial_number":66,"observed_reward":1,"unobserved_reward":0},{"RT":2977,"time": "2018-08-15 01:46:55pm", "schedule_type": "STATIC", "schedule_name": "random_9", "is_biased_choice":true,"side_choice": "LEFT", "trial_number":67,"observed_reward":0,"unobserved_reward":1},{"RT":3015,"time": "2018-08-15 01:46:58pm", "schedule_type": "STATIC", "schedule_name": "random_9", "is_biased_choice":false,"side_choice": "RIGHT", "trial_number":68,"observed_reward":0,"unobserved_reward":0},{"RT":3425,"time": "2018-08-15 01:47:01pm", "schedule_type": "STATIC", "schedule_name": "random_9", "is_biased_choice":true,"side_choice": "LEFT", "trial_number":69,"observed_reward":0,"unobserved_reward":1},{"RT":4486,"time": "2018-08-15 01:47:06pm", "schedule_type": "STATIC", "schedule_name": "random_9", "is_biased_choice":false,"side_choice": "RIGHT", "trial_number":70,"observed_reward":1,"unobserved_reward":0},{"RT":3896,"time": "2018-08-15 01:47:10pm", "schedule_type": "STATIC", "schedule_name": "random_9", "is_biased_choice":false,"side_choice": "RIGHT", "trial_number":71,"observed_reward":0,"unobserved_reward":0},{"RT":3458,"time": "2018-08-15 01:47:13pm", "schedule_type": "STATIC", "schedule_name": "random_9", "is_biased_choice":true,"side_choice": "LEFT", "trial_number":72,"observed_reward":0,"unobserved_reward":0},{"RT":3046,"time": "2018-08-15 01:47:16pm", "schedule_type": "STATIC", "schedule_name": "random_9", "is_biased_choice":false,"side_choice": "RIGHT", "trial_number":73,"observed_reward":1,"unobserved_reward":0},{"RT":3048,"time": "2018-08-15 01:47:19pm", "schedule_type": "STATIC", "schedule_name": "random_9", "is_biased_choice":false,"side_choice": "RIGHT", "trial_number":74,"observed_reward":1,"unobserved_reward":0},{"RT":3176,"time": "2018-08-15 01:47:22pm", "schedule_type": "STATIC", "schedule_name": "random_9", "is_biased_choice":false,"side_choice": "RIGHT", "trial_number":75,"observed_reward":1,"unobserved_reward":0},{"RT":3464,"time": "2018-08-15 01:47:28pm", "schedule_type": "STATIC", "schedule_name": "random_9", "is_biased_choice":false,"side_choice": "RIGHT", "trial_number":76,"observed_reward":0,"unobserved_reward":0},{"RT":2723,"time": "2018-08-15 01:47:29pm", "schedule_type": "STATIC", "schedule_name": "random_9", "is_biased_choice":false,"side_choice": "RIGHT", "trial_number":77,"observed_reward":0,"unobserved_reward":0},{"RT":2542,"time": "2018-08-15 01:47:31pm", "schedule_type": "STATIC", "schedule_name": "random_9", "is_biased_choice":false,"side_choice": "RIGHT", "trial_number":78,"observed_reward":0,"unobserved_reward":1},{"RT":3033,"time": "2018-08-15 01:47:34pm", "schedule_type": "STATIC", "schedule_name": "random_9", "is_biased_choice":true,"side_choice": "LEFT", "trial_number":79,"observed_reward":0,"unobserved_reward":0},{"RT":3044,"time": "2018-08-15 01:47:37pm", "schedule_type": "STATIC", "schedule_name": "random_9", "is_biased_choice":false,"side_choice": "RIGHT", "trial_number":80,"observed_reward":1,"unobserved_reward":0},{"RT":13036,"time": "2018-08-15 01:47:50pm", "schedule_type": "STATIC", "schedule_name": "random_9", "is_biased_choice":true,"side_choice": "LEFT", "trial_number":81,"observed_reward":1,"unobserved_reward":0},{"RT":2719,"time": "2018-08-15 01:47:53pm", "schedule_type": "STATIC", "schedule_name": "random_9", "is_biased_choice":false,"side_choice": "RIGHT", "trial_number":82,"observed_reward":1,"unobserved_reward":0},{"RT":2512,"time": "2018-08-15 01:47:55pm", "schedule_type": "STATIC", "schedule_name": "random_9", "is_biased_choice":true,"side_choice": "LEFT", "trial_number":83,"observed_reward":1,"unobserved_reward":0},{"RT":3080,"time": "2018-08-15 01:47:59pm", "schedule_type": "STATIC", "schedule_name": "random_9", "is_biased_choice":false,"side_choice": "RIGHT", "trial_number":84,"observed_reward":0,"unobserved_reward":0},{"RT":2735,"time": "2018-08-15 01:48:01pm", "schedule_type": "STATIC", "schedule_name": "random_9", "is_biased_choice":true,"side_choice": "LEFT", "trial_number":85,"observed_reward":0,"unobserved_reward":0},{"RT":3008,"time": "2018-08-15 01:48:04pm", "schedule_type": "STATIC", "schedule_name": "random_9", "is_biased_choice":true,"side_choice": "LEFT", "trial_number":86,"observed_reward":0,"unobserved_reward":0},{"RT":3016,"time": "2018-08-15 01:48:07pm", "schedule_type": "STATIC", "schedule_name": "random_9", "is_biased_choice":true,"side_choice": "LEFT", "trial_number":87,"observed_reward":1,"unobserved_reward":0},{"RT":2856,"time": "2018-08-15 01:48:10pm", "schedule_type": "STATIC", "schedule_name": "random_9", "is_biased_choice":true,"side_choice": "LEFT", "trial_number":88,"observed_reward":0,"unobserved_reward":0},{"RT":3296,"time": "2018-08-15 01:48:14pm", "schedule_type": "STATIC", "schedule_name": "random_9", "is_biased_choice":false,"side_choice": "RIGHT", "trial_number":89,"observed_reward":0,"unobserved_reward":0},{"RT":3528,"time": "2018-08-15 01:48:17pm", "schedule_type": "STATIC", "schedule_name": "random_9", "is_biased_choice":true,"side_choice": "LEFT", "trial_number":90,"observed_reward":1,"unobserved_reward":0},{"RT":3136,"time": "2018-08-15 01:48:20pm", "schedule_type": "STATIC", "schedule_name": "random_9", "is_biased_choice":true,"side_choice": "LEFT", "trial_number":91,"observed_reward":1,"unobserved_reward":0},{"RT":2967,"time": "2018-08-15 01:48:23pm", "schedule_type": "STATIC", "schedule_name": "random_9", "is_biased_choice":true,"side_choice": "LEFT", "trial_number":92,"observed_reward":1,"unobserved_reward":0},{"RT":3537,"time": "2018-08-15 01:48:28pm", "schedule_type": "STATIC", "schedule_name": "random_9", "is_biased_choice":true,"side_choice": "LEFT", "trial_number":93,"observed_reward":1,"unobserved_reward":0},{"RT":3018,"time": "2018-08-15 01:48:30pm", "schedule_type": "STATIC", "schedule_name": "random_9", "is_biased_choice":true,"side_choice": "LEFT", "trial_number":94,"observed_reward":0,"unobserved_reward":1},{"RT":3368,"time": "2018-08-15 01:48:33pm", "schedule_type": "STATIC", "schedule_name": "random_9", "is_biased_choice":true,"side_choice": "LEFT", "trial_number":95,"observed_reward":1,"unobserved_reward":0},{"RT":3063,"time": "2018-08-15 01:48:36pm", "schedule_type": "STATIC", "schedule_name": "random_9", "is_biased_choice":false,"side_choice": "RIGHT", "trial_number":96,"observed_reward":0,"unobserved_reward":0},{"RT":2897,"time": "2018-08-15 01:48:39pm", "schedule_type": "STATIC", "schedule_name": "random_9", "is_biased_choice":true,"side_choice": "LEFT", "trial_number":97,"observed_reward":1,"unobserved_reward":0},{"RT":2887,"time": "2018-08-15 01:48:42pm", "schedule_type": "STATIC", "schedule_name": "random_9", "is_biased_choice":true,"side_choice": "LEFT", "trial_number":98,"observed_reward":0,"unobserved_reward":1},{"RT":2584,"time": "2018-08-15 01:48:44pm", "schedule_type": "STATIC", "schedule_name": "random_9", "is_biased_choice":false,"side_choice": "RIGHT", "trial_number":99,"observed_reward":0,"unobserved_reward":0},