[{"RT":7777,"time": "2018-08-15 01:42:37pm", "schedule_type": "STATIC", "schedule_name": "random_16", "is_biased_choice":true,"side_choice": "LEFT", "trial_number":0,"observed_reward":0,"unobserved_reward":0},{"RT":20280,"time": "2018-08-15 01:42:58pm", "schedule_type": "STATIC", "schedule_name": "random_16", "is_biased_choice":false,"side_choice": "RIGHT", "trial_number":1,"observed_reward":0,"unobserved_reward":0},{"RT":3257,"time": "2018-08-15 01:43:01pm", "schedule_type": "STATIC", "schedule_name": "random_16", "is_biased_choice":true,"side_choice": "LEFT", "trial_number":2,"observed_reward":0,"unobserved_reward":0},{"RT":3120,"time": "2018-08-15 01:43:04pm", "schedule_type": "STATIC", "schedule_name": "random_16", "is_biased_choice":false,"side_choice": "RIGHT", "trial_number":3,"observed_reward":0,"unobserved_reward":0},{"RT":3839,"time": "2018-08-15 01:43:08pm", "schedule_type": "STATIC", "schedule_name": "random_16", "is_biased_choice":true,"side_choice": "LEFT", "trial_number":4,"observed_reward":0,"unobserved_reward":0},{"RT":3080,"time": "2018-08-15 01:43:11pm", "schedule_type": "STATIC", "schedule_name": "random_16", "is_biased_choice":true,"side_choice": "LEFT", "trial_number":5,"observed_reward":0,"unobserved_reward":0},{"RT":3233,"time": "2018-08-15 01:43:14pm", "schedule_type": "STATIC", "schedule_name": "random_16", "is_biased_choice":true,"side_choice": "LEFT", "trial_number":6,"observed_reward":0,"unobserved_reward":0},{"RT":2600,"time": "2018-08-15 01:43:17pm", "schedule_type": "STATIC", "schedule_name": "random_16", "is_biased_choice":false,"side_choice": "RIGHT", "trial_number":7,"observed_reward":0,"unobserved_reward":0},{"RT":4488,"time": "2018-08-15 01:43:21pm", "schedule_type": "STATIC", "schedule_name": "random_16", "is_biased_choice":false,"side_choice": "RIGHT", "trial_number":8,"observed_reward":0,"unobserved_reward":0},{"RT":6840,"time": "2018-08-15 01:43:28pm", "schedule_type": "STATIC", "schedule_name": "random_16", "is_biased_choice":false,"side_choice": "RIGHT", "trial_number":9,"observed_reward":1,"unobserved_reward":0},{"RT":3312,"time": "2018-08-15 01:43:32pm", "schedule_type": "STATIC", "schedule_name": "random_16", "is_biased_choice":true,"side_choice": "LEFT", "trial_number":10,"observed_reward":0,"unobserved_reward":0},{"RT":5080,"time": "2018-08-15 01:43:36pm", "schedule_type": "STATIC", "schedule_name": "random_16", "is_biased_choice":false,"side_choice": "RIGHT", "trial_number":11,"observed_reward":0,"unobserved_reward":1},{"RT":2928,"time": "2018-08-15 01:43:39pm", "schedule_type": "STATIC", "schedule_name": "random_16", "is_biased_choice":false,"side_choice": "RIGHT", "trial_number":12,"observed_reward":1,"unobserved_reward":0},{"RT":2879,"time": "2018-08-15 01:43:42pm", "schedule_type": "STATIC", "schedule_name": "random_16", "is_biased_choice":false,"side_choice": "RIGHT", "trial_number":13,"observed_reward":0,"unobserved_reward":0},{"RT":3216,"time": "2018-08-15 01:43:46pm", "schedule_type": "STATIC", "schedule_name": "random_16", "is_biased_choice":false,"side_choice": "RIGHT", "trial_number":14,"observed_reward":0,"unobserved_reward":1},{"RT":4676,"time": "2018-08-15 01:43:50pm", "schedule_type": "STATIC", "schedule_name": "random_16", "is_biased_choice":false,"side_choice": "RIGHT", "trial_number":15,"observed_reward":0,"unobserved_reward":0},{"RT":3373,"time": "2018-08-15 01:43:54pm", "schedule_type": "STATIC", "schedule_name": "random_16", "is_biased_choice":false,"side_choice": "RIGHT", "trial_number":16,"observed_reward":1,"unobserved_reward":0},{"RT":3703,"time": "2018-08-15 01:43:57pm", "schedule_type": "STATIC", "schedule_name": "random_16", "is_biased_choice":false,"side_choice": "RIGHT", "trial_number":17,"observed_reward":0,"unobserved_reward":0},{"RT":3121,"time": "2018-08-15 01:44:01pm", "schedule_type": "STATIC", "schedule_name": "random_16", "is_biased_choice":false,"side_choice": "RIGHT", "trial_number":18,"observed_reward":0,"unobserved_reward":0},{"RT":3951,"time": "2018-08-15 01:44:04pm", "schedule_type": "STATIC", "schedule_name": "random_16", "is_biased_choice":false,"side_choice": "RIGHT", "trial_number":19,"observed_reward":1,"unobserved_reward":0},{"RT":3337,"time": "2018-08-15 01:44:08pm", "schedule_type": "STATIC", "schedule_name": "random_16", "is_biased_choice":false,"side_choice": "RIGHT", "trial_number":20,"observed_reward":1,"unobserved_reward":0},{"RT":8417,"time": "2018-08-15 01:44:16pm", "schedule_type": "STATIC", "schedule_name": "random_16", "is_biased_choice":false,"side_choice": "RIGHT", "trial_number":21,"observed_reward":1,"unobserved_reward":0},{"RT":3040,"time": "2018-08-15 01:44:19pm", "schedule_type": "STATIC", "schedule_name": "random_16", "is_biased_choice":false,"side_choice": "RIGHT", "trial_number":22,"observed_reward":0,"unobserved_reward":1},{"RT":3047,"time": "2018-08-15 01:44:24pm", "schedule_type": "STATIC", "schedule_name": "random_16", "is_biased_choice":true,"side_choice": "LEFT", "trial_number":23,"observed_reward":0,"unobserved_reward":0},{"RT":5376,"time": "2018-08-15 01:44:27pm", "schedule_type": "STATIC", "schedule_name": "random_16", "is_biased_choice":false,"side_choice": "RIGHT", "trial_number":24,"observed_reward":0,"unobserved_reward":0},{"RT":3537,"time": "2018-08-15 01:44:31pm", "schedule_type": "STATIC", "schedule_name": "random_16", "is_biased_choice":false,"side_choice": "RIGHT", "trial_number":25,"observed_reward":1,"unobserved_reward":0},{"RT":4583,"time": "2018-08-15 01:44:36pm", "schedule_type": "STATIC", "schedule_name": "random_16", "is_biased_choice":false,"side_choice": "RIGHT", "trial_number":26,"observed_reward":0,"unobserved_reward":0},{"RT":5608,"time": "2018-08-15 01:44:41pm", "schedule_type": "STATIC", "schedule_name": "random_16", "is_biased_choice":false,"side_choice": "RIGHT", "trial_number":27,"observed_reward":0,"unobserved_reward":0},{"RT":13744,"time": "2018-08-15 01:44:55pm", "schedule_type": "STATIC", "schedule_name": "random_16", "is_biased_choice":false,"side_choice": "RIGHT", "trial_number":28,"observed_reward":0,"unobserved_reward":0},{"RT":6976,"time": "2018-08-15 01:45:02pm", "schedule_type": "STATIC", "schedule_name": "random_16", "is_biased_choice":false,"side_choice": "RIGHT", "trial_number":29,"observed_reward":0,"unobserved_reward":1},{"RT":4840,"time": "2018-08-15 01:45:07pm", "schedule_type": "STATIC", "schedule_name": "random_16", "is_biased_choice":true,"side_choice": "LEFT", "trial_number":30,"observed_reward":0,"unobserved_reward":0},{"RT":3304,"time": "2018-08-15 01:45:10pm", "schedule_type": "STATIC", "schedule_name": "random_16", "is_biased_choice":false,"side_choice": "RIGHT", "trial_number":31,"observed_reward":1,"unobserved_reward":1},{"RT":3872,"time": "2018-08-15 01:45:14pm", "schedule_type": "STATIC", "schedule_name": "random_16", "is_biased_choice":false,"side_choice": "RIGHT", "trial_number":32,"observed_reward":0,"unobserved_reward":0},{"RT":5543,"time": "2018-08-15 01:45:20pm", "schedule_type": "STATIC", "schedule_name": "random_16", "is_biased_choice":false,"side_choice": "RIGHT", "trial_number":33,"observed_reward":0,"unobserved_reward":0},{"RT":13649,"time": "2018-08-15 01:45:33pm", "schedule_type": "STATIC", "schedule_name": "random_16", "is_biased_choice":false,"side_choice": "RIGHT", "trial_number":34,"observed_reward":0,"unobserved_reward":1},{"RT":4255,"time": "2018-08-15 01:45:37pm", "schedule_type": "STATIC", "schedule_name": "random_16", "is_biased_choice":true,"side_choice": "LEFT", "trial_number":35,"observed_reward":0,"unobserved_reward":0},{"RT":4416,"time": "2018-08-15 01:45:42pm", "schedule_type": "STATIC", "schedule_name": "random_16", "is_biased_choice":false,"side_choice": "RIGHT", "trial_number":36,"observed_reward":0,"unobserved_reward":0},{"RT":5688,"time": "2018-08-15 01:45:47pm", "schedule_type": "STATIC", "schedule_name": "random_16", "is_biased_choice":false,"side_choice": "RIGHT", "trial_number":37,"observed_reward":0,"unobserved_reward":0},{"RT":3608,"time": "2018-08-15 01:45:51pm", "schedule_type": "STATIC", "schedule_name": "random_16", "is_biased_choice":false,"side_choice": "RIGHT", "trial_number":38,"observed_reward":1,"unobserved_reward":0},{"RT":4217,"time": "2018-08-15 01:45:55pm", "schedule_type": "STATIC", "schedule_name": "random_16", "is_biased_choice":false,"side_choice": "RIGHT", "trial_number":39,"observed_reward":0,"unobserved_reward":0},{"RT":6262,"time": "2018-08-15 01:46:02pm", "schedule_type": "STATIC", "schedule_name": "random_16", "is_biased_choice":false,"side_choice": "RIGHT", "trial_number":40,"observed_reward":1,"unobserved_reward":0},{"RT":4634,"time": "2018-08-15 01:46:06pm", "schedule_type": "STATIC", "schedule_name": "random_16", "is_biased_choice":false,"side_choice": "RIGHT", "trial_number":41,"observed_reward":0,"unobserved_reward":0},{"RT":6158,"time": "2018-08-15 01:46:13pm", "schedule_type": "STATIC", "schedule_name": "random_16", "is_biased_choice":false,"side_choice": "RIGHT", "trial_number":42,"observed_reward":0,"unobserved_reward":0},{"RT":6417,"time": "2018-08-15 01:46:19pm", "schedule_type": "STATIC", "schedule_name": "random_16", "is_biased_choice":false,"side_choice": "RIGHT", "trial_number":43,"observed_reward":1,"unobserved_reward":1},{"RT":6513,"time": "2018-08-15 01:46:27pm", "schedule_type": "STATIC", "schedule_name": "random_16", "is_biased_choice":false,"side_choice": "RIGHT", "trial_number":44,"observed_reward":0,"unobserved_reward":0},{"RT":4567,"time": "2018-08-15 01:46:30pm", "schedule_type": "STATIC", "schedule_name": "random_16", "is_biased_choice":false,"side_choice": "RIGHT", "trial_number":45,"observed_reward":0,"unobserved_reward":0},{"RT":7760,"time": "2018-08-15 01:46:38pm", "schedule_type": "STATIC", "schedule_name": "random_16", "is_biased_choice":false,"side_choice": "RIGHT", "trial_number":46,"observed_reward":0,"unobserved_reward":0},{"RT":4344,"time": "2018-08-15 01:46:42pm", "schedule_type": "STATIC", "schedule_name": "random_16", "is_biased_choice":false,"side_choice": "RIGHT", "trial_number":47,"observed_reward":1,"unobserved_reward":0},{"RT":5257,"time": "2018-08-15 01:46:47pm", "schedule_type": "STATIC", "schedule_name": "random_16", "is_biased_choice":false,"side_choice": "RIGHT", "trial_number":48,"observed_reward":0,"unobserved_reward":0},{"RT":4103,"time": "2018-08-15 01:46:51pm", "schedule_type": "STATIC", "schedule_name": "random_16", "is_biased_choice":false,"side_choice": "RIGHT", "trial_number":49,"observed_reward":1,"unobserved_reward":1},{"RT":4081,"time": "2018-08-15 01:46:56pm", "schedule_type": "STATIC", "schedule_name": "random_16", "is_biased_choice":false,"side_choice": "RIGHT", "trial_number":50,"observed_reward":0,"unobserved_reward":0},{"RT":3375,"time": "2018-08-15 01:46:59pm", "schedule_type": "STATIC", "schedule_name": "random_16", "is_biased_choice":false,"side_choice": "RIGHT", "trial_number":51,"observed_reward":1,"unobserved_reward":0},{"RT":4640,"time": "2018-08-15 01:47:04pm", "schedule_type": "STATIC", "schedule_name": "random_16", "is_biased_choice":false,"side_choice": "RIGHT", "trial_number":52,"observed_reward":1,"unobserved_reward":0},{"RT":3752,"time": "2018-08-15 01:47:07pm", "schedule_type": "STATIC", "schedule_name": "random_16", "is_biased_choice":false,"side_choice": "RIGHT", "trial_number":53,"observed_reward":0,"unobserved_reward":0},{"RT":4407,"time": "2018-08-15 01:47:12pm", "schedule_type": "STATIC", "schedule_name": "random_16", "is_biased_choice":false,"side_choice": "RIGHT", "trial_number":54,"observed_reward":0,"unobserved_reward":0},{"RT":4152,"time": "2018-08-15 01:47:16pm", "schedule_type": "STATIC", "schedule_name": "random_16", "is_biased_choice":false,"side_choice": "RIGHT", "trial_number":55,"observed_reward":0,"unobserved_reward":1},{"RT":3114,"time": "2018-08-15 01:47:19pm", "schedule_type": "STATIC", "schedule_name": "random_16", "is_biased_choice":false,"side_choice": "RIGHT", "trial_number":56,"observed_reward":0,"unobserved_reward":1},{"RT":4344,"time": "2018-08-15 01:47:23pm", "schedule_type": "STATIC", "schedule_name": "random_16", "is_biased_choice":false,"side_choice": "RIGHT", "trial_number":57,"observed_reward":1,"unobserved_reward":1},{"RT":6384,"time": "2018-08-15 01:47:30pm", "schedule_type": "STATIC", "schedule_name": "random_16", "is_biased_choice":false,"side_choice": "RIGHT", "trial_number":58,"observed_reward":0,"unobserved_reward":1},{"RT":3832,"time": "2018-08-15 01:47:33pm", "schedule_type": "STATIC", "schedule_name": "random_16", "is_biased_choice":false,"side_choice": "RIGHT", "trial_number":59,"observed_reward":0,"unobserved_reward":0},{"RT":2968,"time": "2018-08-15 01:47:36pm", "schedule_type": "STATIC", "schedule_name": "random_16", "is_biased_choice":false,"side_choice": "RIGHT", "trial_number":60,"observed_reward":1,"unobserved_reward":0},{"RT":4767,"time": "2018-08-15 01:47:41pm", "schedule_type": "STATIC", "schedule_name": "random_16", "is_biased_choice":false,"side_choice": "RIGHT", "trial_number":61,"observed_reward":1,"unobserved_reward":0},{"RT":4537,"time": "2018-08-15 01:47:46pm", "schedule_type": "STATIC", "schedule_name": "random_16", "is_biased_choice":false,"side_choice": "RIGHT", "trial_number":62,"observed_reward":0,"unobserved_reward":1},{"RT":4160,"time": "2018-08-15 01:47:50pm", "schedule_type": "STATIC", "schedule_name": "random_16", "is_biased_choice":false,"side_choice": "RIGHT", "trial_number":63,"observed_reward":0,"unobserved_reward":0},{"RT":4751,"time": "2018-08-15 01:47:55pm", "schedule_type": "STATIC", "schedule_name": "random_16", "is_biased_choice":false,"side_choice": "RIGHT", "trial_number":64,"observed_reward":0,"unobserved_reward":0},{"RT":5049,"time": "2018-08-15 01:48:00pm", "schedule_type": "STATIC", "schedule_name": "random_16", "is_biased_choice":false,"side_choice": "RIGHT", "trial_number":65,"observed_reward":0,"unobserved_reward":0},{"RT":6000,"time": "2018-08-15 01:48:06pm", "schedule_type": "STATIC", "schedule_name": "random_16", "is_biased_choice":false,"side_choice": "RIGHT", "trial_number":66,"observed_reward":0,"unobserved_reward":0},{"RT":4088,"time": "2018-08-15 01:48:10pm", "schedule_type": "STATIC", "schedule_name": "random_16", "is_biased_choice":false,"side_choice": "RIGHT", "trial_number":67,"observed_reward":0,"unobserved_reward":0},{"RT":6079,"time": "2018-08-15 01:48:16pm", "schedule_type": "STATIC", "schedule_name": "random_16", "is_biased_choice":false,"side_choice": "RIGHT", "trial_number":68,"observed_reward":0,"unobserved_reward":0},{"RT":5512,"time": "2018-08-15 01:48:22pm", "schedule_type": "STATIC", "schedule_name": "random_16", "is_biased_choice":false,"side_choice": "RIGHT", "trial_number":69,"observed_reward":0,"unobserved_reward":0},{"RT":5225,"time": "2018-08-15 01:48:28pm", "schedule_type": "STATIC", "schedule_name": "random_16", "is_biased_choice":false,"side_choice": "RIGHT", "trial_number":70,"observed_reward":0,"unobserved_reward":0},{"RT":3896,"time": "2018-08-15 01:48:31pm", "schedule_type": "STATIC", "schedule_name": "random_16", "is_biased_choice":false,"side_choice": "RIGHT", "trial_number":71,"observed_reward":0,"unobserved_reward":1},{"RT":5040,"time": "2018-08-15 01:48:35pm", "schedule_type": "STATIC", "schedule_name": "random_16", "is_biased_choice":false,"side_choice": "RIGHT", "trial_number":72,"observed_reward":0,"unobserved_reward":1},{"RT":4544,"time": "2018-08-15 01:48:40pm", "schedule_type": "STATIC", "schedule_name": "random_16", "is_biased_choice":false,"side_choice": "RIGHT", "trial_number":73,"observed_reward":0,"unobserved_reward":0},{"RT":4656,"time": "2018-08-15 01:48:45pm", "schedule_type": "STATIC", "schedule_name": "random_16", "is_biased_choice":false,"side_choice": "RIGHT", "trial_number":74,"observed_reward":1,"unobserved_reward":0},{"RT":4792,"time": "2018-08-15 01:48:50pm", "schedule_type": "STATIC", "schedule_name": "random_16", "is_biased_choice":false,"side_choice": "RIGHT", "trial_number":75,"observed_reward":0,"unobserved_reward":1},{"RT":6063,"time": "2018-08-15 01:48:56pm", "schedule_type": "STATIC", "schedule_name": "random_16", "is_biased_choice":false,"side_choice": "RIGHT", "trial_number":76,"observed_reward":0,"unobserved_reward":0},{"RT":7016,"time": "2018-08-15 01:49:03pm", "schedule_type": "STATIC", "schedule_name": "random_16", "is_biased_choice":false,"side_choice": "RIGHT", "trial_number":77,"observed_reward":0,"unobserved_reward":1},{"RT":7177,"time": "2018-08-15 01:49:10pm", "schedule_type": "STATIC", "schedule_name": "random_16", "is_biased_choice":false,"side_choice": "RIGHT", "trial_number":78,"observed_reward":1,"unobserved_reward":0},{"RT":5520,"time": "2018-08-15 01:49:15pm", "schedule_type": "STATIC", "schedule_name": "random_16", "is_biased_choice":false,"side_choice": "RIGHT", "trial_number":79,"observed_reward":1,"unobserved_reward":0},{"RT":5057,"time": "2018-08-15 01:49:20pm", "schedule_type": "STATIC", "schedule_name": "random_16", "is_biased_choice":false,"side_choice": "RIGHT", "trial_number":80,"observed_reward":0,"unobserved_reward":0},{"RT":6559,"time": "2018-08-15 01:49:29pm", "schedule_type": "STATIC", "schedule_name": "random_16", "is_biased_choice":false,"side_choice": "RIGHT", "trial_number":81,"observed_reward":0,"unobserved_reward":0},{"RT":8320,"time": "2018-08-15 01:49:35pm", "schedule_type": "STATIC", "schedule_name": "random_16", "is_biased_choice":false,"side_choice": "RIGHT", "trial_number":82,"observed_reward":0,"unobserved_reward":1},{"RT":5752,"time": "2018-08-15 01:49:41pm", "schedule_type": "STATIC", "schedule_name": "random_16", "is_biased_choice":false,"side_choice": "RIGHT", "trial_number":83,"observed_reward":0,"unobserved_reward":0},{"RT":3448,"time": "2018-08-15 01:49:45pm", "schedule_type": "STATIC", "schedule_name": "random_16", "is_biased_choice":false,"side_choice": "RIGHT", "trial_number":84,"observed_reward":0,"unobserved_reward":0},{"RT":4920,"time": "2018-08-15 01:49:50pm", "schedule_type": "STATIC", "schedule_name": "random_16", "is_biased_choice":false,"side_choice": "RIGHT", "trial_number":85,"observed_reward":0,"unobserved_reward":1},{"RT":3360,"time": "2018-08-15 01:49:53pm", "schedule_type": "STATIC", "schedule_name": "random_16", "is_biased_choice":false,"side_choice": "RIGHT", "trial_number":86,"observed_reward":0,"unobserved_reward":0},{"RT":4335,"time": "2018-08-15 01:49:57pm", "schedule_type": "STATIC", "schedule_name": "random_16", "is_biased_choice":false,"side_choice": "RIGHT", "trial_number":87,"observed_reward":0,"unobserved_reward":0},{"RT":4305,"time": "2018-08-15 01:50:01pm", "schedule_type": "STATIC", "schedule_name": "random_16", "is_biased_choice":false,"side_choice": "RIGHT", "trial_number":88,"observed_reward":0,"unobserved_reward":0},{"RT":5383,"time": "2018-08-15 01:50:07pm", "schedule_type": "STATIC", "schedule_name": "random_16", "is_biased_choice":false,"side_choice": "RIGHT", "trial_number":89,"observed_reward":1,"unobserved_reward":1},{"RT":7857,"time": "2018-08-15 01:50:15pm", "schedule_type": "STATIC", "schedule_name": "random_16", "is_biased_choice":false,"side_choice": "RIGHT", "trial_number":90,"observed_reward":0,"unobserved_reward":1},{"RT":4496,"time": "2018-08-15 01:50:19pm", "schedule_type": "STATIC", "schedule_name": "random_16", "is_biased_choice":false,"side_choice": "RIGHT", "trial_number":91,"observed_reward":0,"unobserved_reward":0},{"RT":4000,"time": "2018-08-15 01:50:23pm", "schedule_type": "STATIC", "schedule_name": "random_16", "is_biased_choice":false,"side_choice": "RIGHT", "trial_number":92,"observed_reward":0,"unobserved_reward":0},{"RT":9344,"time": "2018-08-15 01:50:33pm", "schedule_type": "STATIC", "schedule_name": "random_16", "is_biased_choice":false,"side_choice": "RIGHT", "trial_number":93,"observed_reward":0,"unobserved_reward":0},{"RT":5256,"time": "2018-08-15 01:50:38pm", "schedule_type": "STATIC", "schedule_name": "random_16", "is_biased_choice":false,"side_choice": "RIGHT", "trial_number":94,"observed_reward":0,"unobserved_reward":1},{"RT":4528,"time": "2018-08-15 01:50:42pm", "schedule_type": "STATIC", "schedule_name": "random_16", "is_biased_choice":false,"side_choice": "RIGHT", "trial_number":95,"observed_reward":0,"unobserved_reward":0},{"RT":3655,"time": "2018-08-15 01:50:46pm", "schedule_type": "STATIC", "schedule_name": "random_16", "is_biased_choice":false,"side_choice": "RIGHT", "trial_number":96,"observed_reward":0,"unobserved_reward":1},{"RT":4649,"time": "2018-08-15 01:50:51pm", "schedule_type": "STATIC", "schedule_name": "random_16", "is_biased_choice":false,"side_choice": "RIGHT", "trial_number":97,"observed_reward":1,"unobserved_reward":0},{"RT":5408,"time": "2018-08-15 01:50:56pm", "schedule_type": "STATIC", "schedule_name": "random_16", "is_biased_choice":false,"side_choice": "RIGHT", "trial_number":98,"observed_reward":1,"unobserved_reward":1},