trial_number, time, schedule_type, schedule_name, is_biased_choice, side_choice, RT, observed_reward, unobserved_reward, biased_reward, unbiased_reward
0,2019-09-15 04:26:18pm, STATIC, random_16, false, LEFT, 1565, 0, 0, 0, 0
1,2019-09-15 04:26:21pm, STATIC, random_16, true, RIGHT, 3018, 0, 0, 0, 0
2,2019-09-15 04:26:24pm, STATIC, random_16, false, LEFT, 2408, 0, 0, 0, 0
3,2019-09-15 04:26:26pm, STATIC, random_16, false, LEFT, 2200, 0, 0, 0, 0
4,2019-09-15 04:26:28pm, STATIC, random_16, true, RIGHT, 2484, 0, 0, 0, 0
5,2019-09-15 04:26:31pm, STATIC, random_16, true, RIGHT, 2500, 0, 0, 0, 0
6,2019-09-15 04:26:33pm, STATIC, random_16, false, LEFT, 2440, 0, 0, 0, 0
7,2019-09-15 04:26:37pm, STATIC, random_16, false, LEFT, 3349, 0, 0, 0, 0
8,2019-09-15 04:26:39pm, STATIC, random_16, true, RIGHT, 2385, 0, 0, 0, 0
9,2019-09-15 04:26:42pm, STATIC, random_16, false, LEFT, 2926, 1, 0, 0, 1
10,2019-09-15 04:26:45pm, STATIC, random_16, true, RIGHT, 2965, 0, 0, 0, 0
11,2019-09-15 04:26:48pm, STATIC, random_16, false, LEFT, 2583, 0, 1, 1, 0
12,2019-09-15 04:26:50pm, STATIC, random_16, false, LEFT, 2424, 1, 0, 0, 1
13,2019-09-15 04:26:52pm, STATIC, random_16, true, RIGHT, 2438, 0, 0, 0, 0
14,2019-09-15 04:26:55pm, STATIC, random_16, true, RIGHT, 2224, 0, 1, 1, 0
15,2019-09-15 04:26:57pm, STATIC, random_16, false, LEFT, 2384, 0, 0, 0, 0
16,2019-09-15 04:26:59pm, STATIC, random_16, false, LEFT, 2324, 1, 0, 0, 1
17,2019-09-15 04:27:02pm, STATIC, random_16, false, LEFT, 2392, 0, 0, 0, 0
18,2019-09-15 04:27:04pm, STATIC, random_16, true, RIGHT, 2525, 0, 0, 0, 0
19,2019-09-15 04:27:07pm, STATIC, random_16, false, LEFT, 2494, 1, 0, 0, 1
20,2019-09-15 04:27:09pm, STATIC, random_16, false, LEFT, 2432, 1, 0, 0, 1
21,2019-09-15 04:27:12pm, STATIC, random_16, false, LEFT, 2462, 1, 0, 0, 1
22,2019-09-15 04:27:17pm, STATIC, random_16, true, RIGHT, 5744, 0, 1, 1, 0
23,2019-09-15 04:27:20pm, STATIC, random_16, false, LEFT, 2509, 0, 0, 0, 0
24,2019-09-15 04:27:22pm, STATIC, random_16, false, LEFT, 2322, 0, 0, 0, 0
25,2019-09-15 04:27:24pm, STATIC, random_16, true, RIGHT, 2279, 1, 0, 0, 1
26,2019-09-15 04:27:27pm, STATIC, random_16, true, RIGHT, 2416, 0, 0, 0, 0
27,2019-09-15 04:27:29pm, STATIC, random_16, false, LEFT, 2354, 0, 0, 0, 0
28,2019-09-15 04:27:32pm, STATIC, random_16, true, RIGHT, 2361, 0, 0, 0, 0
29,2019-09-15 04:27:34pm, STATIC, random_16, false, LEFT, 2270, 0, 1, 1, 0
30,2019-09-15 04:27:36pm, STATIC, random_16, false, LEFT, 2333, 0, 0, 0, 0
31,2019-09-15 04:27:39pm, STATIC, random_16, true, RIGHT, 2324, 1, 1, 1, 1
32,2019-09-15 04:27:41pm, STATIC, random_16, true, RIGHT, 2492, 0, 0, 0, 0
33,2019-09-15 04:27:44pm, STATIC, random_16, false, LEFT, 2956, 0, 0, 0, 0
34,2019-09-15 04:27:46pm, STATIC, random_16, false, LEFT, 2369, 0, 1, 1, 0
35,2019-09-15 04:27:49pm, STATIC, random_16, true, RIGHT, 2231, 0, 0, 0, 0
36,2019-09-15 04:27:51pm, STATIC, random_16, false, LEFT, 2586, 0, 0, 0, 0
37,2019-09-15 04:27:53pm, STATIC, random_16, false, LEFT, 2239, 0, 0, 0, 0
38,2019-09-15 04:27:56pm, STATIC, random_16, true, RIGHT, 2384, 1, 0, 0, 1
39,2019-09-15 04:27:58pm, STATIC, random_16, false, LEFT, 2485, 0, 0, 0, 0
40,2019-09-15 04:28:01pm, STATIC, random_16, false, LEFT, 2270, 1, 0, 0, 1
41,2019-09-15 04:28:03pm, STATIC, random_16, true, RIGHT, 2423, 0, 0, 0, 0
42,2019-09-15 04:28:05pm, STATIC, random_16, false, LEFT, 2516, 0, 0, 0, 0
43,2019-09-15 04:28:08pm, STATIC, random_16, false, LEFT, 2338, 1, 1, 1, 1
44,2019-09-15 04:28:10pm, STATIC, random_16, false, LEFT, 2510, 0, 0, 0, 0
45,2019-09-15 04:28:13pm, STATIC, random_16, true, RIGHT, 2300, 0, 0, 0, 0
46,2019-09-15 04:28:15pm, STATIC, random_16, true, RIGHT, 2138, 0, 0, 0, 0
47,2019-09-15 04:28:17pm, STATIC, random_16, false, LEFT, 2254, 1, 0, 0, 1
48,2019-09-15 04:28:19pm, STATIC, random_16, false, LEFT, 2301, 0, 0, 0, 0
49,2019-09-15 04:28:22pm, STATIC, random_16, true, RIGHT, 2731, 1, 1, 1, 1
50,2019-09-15 04:28:25pm, STATIC, random_16, false, LEFT, 2494, 0, 0, 0, 0
51,2019-09-15 04:28:27pm, STATIC, random_16, true, RIGHT, 2400, 1, 0, 0, 1
52,2019-09-15 04:28:29pm, STATIC, random_16, true, RIGHT, 2378, 1, 0, 0, 1
53,2019-09-15 04:28:32pm, STATIC, random_16, false, LEFT, 2338, 0, 0, 0, 0
54,2019-09-15 04:28:34pm, STATIC, random_16, false, LEFT, 2363, 0, 0, 0, 0
55,2019-09-15 04:28:36pm, STATIC, random_16, false, LEFT, 2275, 0, 1, 1, 0
56,2019-09-15 04:28:39pm, STATIC, random_16, false, LEFT, 2208, 0, 1, 1, 0
57,2019-09-15 04:28:41pm, STATIC, random_16, false, LEFT, 2275, 1, 1, 1, 1
58,2019-09-15 04:28:44pm, STATIC, random_16, false, LEFT, 2733, 0, 1, 1, 0
59,2019-09-15 04:28:46pm, STATIC, random_16, true, RIGHT, 2741, 0, 0, 0, 0
60,2019-09-15 04:28:48pm, STATIC, random_16, true, RIGHT, 2199, 1, 0, 0, 1
61,2019-09-15 04:28:51pm, STATIC, random_16, false, LEFT, 2316, 1, 0, 0, 1
62,2019-09-15 04:28:53pm, STATIC, random_16, true, RIGHT, 2314, 0, 1, 1, 0
63,2019-09-15 04:28:55pm, STATIC, random_16, true, RIGHT, 2199, 0, 0, 0, 0
64,2019-09-15 04:28:58pm, STATIC, random_16, false, LEFT, 2347, 0, 0, 0, 0
65,2019-09-15 04:29:00pm, STATIC, random_16, true, RIGHT, 2270, 0, 0, 0, 0
66,2019-09-15 04:29:02pm, STATIC, random_16, true, RIGHT, 2548, 0, 0, 0, 0
67,2019-09-15 04:29:05pm, STATIC, random_16, false, LEFT, 2323, 0, 0, 0, 0
68,2019-09-15 04:29:07pm, STATIC, random_16, true, RIGHT, 2331, 0, 0, 0, 0
69,2019-09-15 04:29:09pm, STATIC, random_16, true, RIGHT, 2184, 0, 0, 0, 0
70,2019-09-15 04:29:12pm, STATIC, random_16, true, RIGHT, 2317, 0, 0, 0, 0
71,2019-09-15 04:29:14pm, STATIC, random_16, false, LEFT, 2392, 0, 1, 1, 0
72,2019-09-15 04:29:16pm, STATIC, random_16, false, LEFT, 2315, 0, 1, 1, 0
73,2019-09-15 04:29:19pm, STATIC, random_16, true, RIGHT, 2277, 0, 0, 0, 0
74,2019-09-15 04:29:21pm, STATIC, random_16, true, RIGHT, 2331, 1, 0, 0, 1
75,2019-09-15 04:29:23pm, STATIC, random_16, true, RIGHT, 2508, 0, 1, 1, 0
76,2019-09-15 04:29:26pm, STATIC, random_16, false, LEFT, 2370, 0, 0, 0, 0
77,2019-09-15 04:29:28pm, STATIC, random_16, true, RIGHT, 2323, 0, 1, 1, 0
78,2019-09-15 04:29:31pm, STATIC, random_16, false, LEFT, 2631, 1, 0, 0, 1
79,2019-09-15 04:29:33pm, STATIC, random_16, false, LEFT, 2570, 1, 0, 0, 1
80,2019-09-15 04:29:36pm, STATIC, random_16, false, LEFT, 2340, 0, 0, 0, 0
81,2019-09-15 04:29:38pm, STATIC, random_16, true, RIGHT, 2209, 0, 0, 0, 0
82,2019-09-15 04:29:40pm, STATIC, random_16, true, RIGHT, 2421, 0, 1, 1, 0
83,2019-09-15 04:29:42pm, STATIC, random_16, true, RIGHT, 2155, 0, 0, 0, 0
84,2019-09-15 04:29:45pm, STATIC, random_16, false, LEFT, 2825, 0, 0, 0, 0
85,2019-09-15 04:29:48pm, STATIC, random_16, false, LEFT, 2584, 0, 1, 1, 0
86,2019-09-15 04:29:50pm, STATIC, random_16, false, LEFT, 2294, 0, 0, 0, 0
87,2019-09-15 04:29:52pm, STATIC, random_16, true, RIGHT, 2144, 0, 0, 0, 0
88,2019-09-15 04:29:55pm, STATIC, random_16, true, RIGHT, 2586, 0, 0, 0, 0
89,2019-09-15 04:29:58pm, STATIC, random_16, false, LEFT, 3366, 1, 1, 1, 1
90,2019-09-15 04:30:01pm, STATIC, random_16, false, LEFT, 2376, 0, 1, 1, 0
91,2019-09-15 04:30:03pm, STATIC, random_16, true, RIGHT, 2656, 0, 0, 0, 0
92,2019-09-15 04:30:05pm, STATIC, random_16, true, RIGHT, 2144, 0, 0, 0, 0
93,2019-09-15 04:30:08pm, STATIC, random_16, true, RIGHT, 2224, 0, 0, 0, 0
94,2019-09-15 04:30:10pm, STATIC, random_16, false, LEFT, 2330, 0, 1, 1, 0
95,2019-09-15 04:30:12pm, STATIC, random_16, true, RIGHT, 2478, 0, 0, 0, 0
96,2019-09-15 04:30:15pm, STATIC, random_16, false, LEFT, 2270, 0, 1, 1, 0
97,2019-09-15 04:30:17pm, STATIC, random_16, true, RIGHT, 2316, 1, 0, 0, 1
98,2019-09-15 04:30:19pm, STATIC, random_16, true, RIGHT, 2376, 1, 1, 1, 1
99,2019-09-15 04:30:22pm, STATIC, random_16, false, LEFT, 2470, 1, 1, 1, 1
