[{"RT":12049,"time": "2018-08-15 05:28:24pm", "schedule_type": "STATIC", "schedule_name": "random_4", "is_biased_choice":true,"side_choice": "LEFT", "trial_number":0,"observed_reward":1,"unobserved_reward":0},{"RT":8272,"time": "2018-08-15 05:28:32pm", "schedule_type": "STATIC", "schedule_name": "random_4", "is_biased_choice":true,"side_choice": "LEFT", "trial_number":1,"observed_reward":0,"unobserved_reward":0},{"RT":10943,"time": "2018-08-15 05:28:43pm", "schedule_type": "STATIC", "schedule_name": "random_4", "is_biased_choice":true,"side_choice": "LEFT", "trial_number":2,"observed_reward":1,"unobserved_reward":0},{"RT":6960,"time": "2018-08-15 05:28:50pm", "schedule_type": "STATIC", "schedule_name": "random_4", "is_biased_choice":false,"side_choice": "RIGHT", "trial_number":3,"observed_reward":0,"unobserved_reward":1},{"RT":4425,"time": "2018-08-15 05:28:55pm", "schedule_type": "STATIC", "schedule_name": "random_4", "is_biased_choice":false,"side_choice": "RIGHT", "trial_number":4,"observed_reward":0,"unobserved_reward":0},{"RT":4855,"time": "2018-08-15 05:28:59pm", "schedule_type": "STATIC", "schedule_name": "random_4", "is_biased_choice":false,"side_choice": "RIGHT", "trial_number":5,"observed_reward":0,"unobserved_reward":0},{"RT":4113,"time": "2018-08-15 05:29:04pm", "schedule_type": "STATIC", "schedule_name": "random_4", "is_biased_choice":true,"side_choice": "LEFT", "trial_number":6,"observed_reward":1,"unobserved_reward":0},{"RT":6272,"time": "2018-08-15 05:29:10pm", "schedule_type": "STATIC", "schedule_name": "random_4", "is_biased_choice":false,"side_choice": "RIGHT", "trial_number":7,"observed_reward":1,"unobserved_reward":0},{"RT":3520,"time": "2018-08-15 05:29:14pm", "schedule_type": "STATIC", "schedule_name": "random_4", "is_biased_choice":false,"side_choice": "RIGHT", "trial_number":8,"observed_reward":1,"unobserved_reward":0},{"RT":3104,"time": "2018-08-15 05:29:16pm", "schedule_type": "STATIC", "schedule_name": "random_4", "is_biased_choice":true,"side_choice": "LEFT", "trial_number":9,"observed_reward":0,"unobserved_reward":0},{"RT":4871,"time": "2018-08-15 05:29:21pm", "schedule_type": "STATIC", "schedule_name": "random_4", "is_biased_choice":false,"side_choice": "RIGHT", "trial_number":10,"observed_reward":1,"unobserved_reward":1},{"RT":4160,"time": "2018-08-15 05:29:26pm", "schedule_type": "STATIC", "schedule_name": "random_4", "is_biased_choice":true,"side_choice": "LEFT", "trial_number":11,"observed_reward":0,"unobserved_reward":0},{"RT":4049,"time": "2018-08-15 05:29:29pm", "schedule_type": "STATIC", "schedule_name": "random_4", "is_biased_choice":false,"side_choice": "RIGHT", "trial_number":12,"observed_reward":1,"unobserved_reward":1},{"RT":3816,"time": "2018-08-15 05:29:34pm", "schedule_type": "STATIC", "schedule_name": "random_4", "is_biased_choice":false,"side_choice": "RIGHT", "trial_number":13,"observed_reward":0,"unobserved_reward":1},{"RT":4208,"time": "2018-08-15 05:29:37pm", "schedule_type": "STATIC", "schedule_name": "random_4", "is_biased_choice":true,"side_choice": "LEFT", "trial_number":14,"observed_reward":0,"unobserved_reward":0},{"RT":3727,"time": "2018-08-15 05:29:42pm", "schedule_type": "STATIC", "schedule_name": "random_4", "is_biased_choice":true,"side_choice": "LEFT", "trial_number":15,"observed_reward":0,"unobserved_reward":0},{"RT":3500,"time": "2018-08-15 05:29:45pm", "schedule_type": "STATIC", "schedule_name": "random_4", "is_biased_choice":false,"side_choice": "RIGHT", "trial_number":16,"observed_reward":0,"unobserved_reward":0},{"RT":4213,"time": "2018-08-15 05:29:49pm", "schedule_type": "STATIC", "schedule_name": "random_4", "is_biased_choice":true,"side_choice": "LEFT", "trial_number":17,"observed_reward":0,"unobserved_reward":0},{"RT":5191,"time": "2018-08-15 05:29:54pm", "schedule_type": "STATIC", "schedule_name": "random_4", "is_biased_choice":false,"side_choice": "RIGHT", "trial_number":18,"observed_reward":0,"unobserved_reward":0},{"RT":4273,"time": "2018-08-15 05:29:59pm", "schedule_type": "STATIC", "schedule_name": "random_4", "is_biased_choice":true,"side_choice": "LEFT", "trial_number":19,"observed_reward":0,"unobserved_reward":1},{"RT":3641,"time": "2018-08-15 05:30:02pm", "schedule_type": "STATIC", "schedule_name": "random_4", "is_biased_choice":false,"side_choice": "RIGHT", "trial_number":20,"observed_reward":0,"unobserved_reward":0},{"RT":3487,"time": "2018-08-15 05:30:06pm", "schedule_type": "STATIC", "schedule_name": "random_4", "is_biased_choice":true,"side_choice": "LEFT", "trial_number":21,"observed_reward":1,"unobserved_reward":0},{"RT":3664,"time": "2018-08-15 05:30:09pm", "schedule_type": "STATIC", "schedule_name": "random_4", "is_biased_choice":true,"side_choice": "LEFT", "trial_number":22,"observed_reward":0,"unobserved_reward":1},{"RT":3399,"time": "2018-08-15 05:30:13pm", "schedule_type": "STATIC", "schedule_name": "random_4", "is_biased_choice":false,"side_choice": "RIGHT", "trial_number":23,"observed_reward":0,"unobserved_reward":1},{"RT":3578,"time": "2018-08-15 05:30:16pm", "schedule_type": "STATIC", "schedule_name": "random_4", "is_biased_choice":true,"side_choice": "LEFT", "trial_number":24,"observed_reward":0,"unobserved_reward":0},{"RT":3367,"time": "2018-08-15 05:30:20pm", "schedule_type": "STATIC", "schedule_name": "random_4", "is_biased_choice":false,"side_choice": "RIGHT", "trial_number":25,"observed_reward":1,"unobserved_reward":1},{"RT":3480,"time": "2018-08-15 05:30:23pm", "schedule_type": "STATIC", "schedule_name": "random_4", "is_biased_choice":true,"side_choice": "LEFT", "trial_number":26,"observed_reward":0,"unobserved_reward":0},{"RT":3527,"time": "2018-08-15 05:30:27pm", "schedule_type": "STATIC", "schedule_name": "random_4", "is_biased_choice":false,"side_choice": "RIGHT", "trial_number":27,"observed_reward":0,"unobserved_reward":0},{"RT":3153,"time": "2018-08-15 05:30:30pm", "schedule_type": "STATIC", "schedule_name": "random_4", "is_biased_choice":true,"side_choice": "LEFT", "trial_number":28,"observed_reward":1,"unobserved_reward":0},{"RT":3113,"time": "2018-08-15 05:30:33pm", "schedule_type": "STATIC", "schedule_name": "random_4", "is_biased_choice":false,"side_choice": "RIGHT", "trial_number":29,"observed_reward":0,"unobserved_reward":0},{"RT":3432,"time": "2018-08-15 05:30:37pm", "schedule_type": "STATIC", "schedule_name": "random_4", "is_biased_choice":true,"side_choice": "LEFT", "trial_number":30,"observed_reward":0,"unobserved_reward":0},{"RT":3512,"time": "2018-08-15 05:30:40pm", "schedule_type": "STATIC", "schedule_name": "random_4", "is_biased_choice":true,"side_choice": "LEFT", "trial_number":31,"observed_reward":0,"unobserved_reward":0},{"RT":3336,"time": "2018-08-15 05:30:43pm", "schedule_type": "STATIC", "schedule_name": "random_4", "is_biased_choice":true,"side_choice": "LEFT", "trial_number":32,"observed_reward":0,"unobserved_reward":0},{"RT":3663,"time": "2018-08-15 05:30:47pm", "schedule_type": "STATIC", "schedule_name": "random_4", "is_biased_choice":true,"side_choice": "LEFT", "trial_number":33,"observed_reward":1,"unobserved_reward":0},{"RT":3300,"time": "2018-08-15 05:30:50pm", "schedule_type": "STATIC", "schedule_name": "random_4", "is_biased_choice":true,"side_choice": "LEFT", "trial_number":34,"observed_reward":1,"unobserved_reward":0},{"RT":3940,"time": "2018-08-15 05:30:54pm", "schedule_type": "STATIC", "schedule_name": "random_4", "is_biased_choice":true,"side_choice": "LEFT", "trial_number":35,"observed_reward":0,"unobserved_reward":0},{"RT":4608,"time": "2018-08-15 05:30:59pm", "schedule_type": "STATIC", "schedule_name": "random_4", "is_biased_choice":false,"side_choice": "RIGHT", "trial_number":36,"observed_reward":0,"unobserved_reward":0},{"RT":3923,"time": "2018-08-15 05:31:03pm", "schedule_type": "STATIC", "schedule_name": "random_4", "is_biased_choice":true,"side_choice": "LEFT", "trial_number":37,"observed_reward":0,"unobserved_reward":1},{"RT":5076,"time": "2018-08-15 05:31:08pm", "schedule_type": "STATIC", "schedule_name": "random_4", "is_biased_choice":true,"side_choice": "LEFT", "trial_number":38,"observed_reward":0,"unobserved_reward":1},{"RT":3889,"time": "2018-08-15 05:31:12pm", "schedule_type": "STATIC", "schedule_name": "random_4", "is_biased_choice":true,"side_choice": "LEFT", "trial_number":39,"observed_reward":1,"unobserved_reward":0},{"RT":3472,"time": "2018-08-15 05:31:15pm", "schedule_type": "STATIC", "schedule_name": "random_4", "is_biased_choice":false,"side_choice": "RIGHT", "trial_number":40,"observed_reward":0,"unobserved_reward":1},{"RT":3472,"time": "2018-08-15 05:31:19pm", "schedule_type": "STATIC", "schedule_name": "random_4", "is_biased_choice":true,"side_choice": "LEFT", "trial_number":41,"observed_reward":1,"unobserved_reward":0},{"RT":3232,"time": "2018-08-15 05:31:22pm", "schedule_type": "STATIC", "schedule_name": "random_4", "is_biased_choice":false,"side_choice": "RIGHT", "trial_number":42,"observed_reward":1,"unobserved_reward":0},{"RT":4687,"time": "2018-08-15 05:31:26pm", "schedule_type": "STATIC", "schedule_name": "random_4", "is_biased_choice":true,"side_choice": "LEFT", "trial_number":43,"observed_reward":0,"unobserved_reward":0},{"RT":3650,"time": "2018-08-15 05:31:30pm", "schedule_type": "STATIC", "schedule_name": "random_4", "is_biased_choice":false,"side_choice": "RIGHT", "trial_number":44,"observed_reward":1,"unobserved_reward":0},{"RT":3149,"time": "2018-08-15 05:31:33pm", "schedule_type": "STATIC", "schedule_name": "random_4", "is_biased_choice":true,"side_choice": "LEFT", "trial_number":45,"observed_reward":0,"unobserved_reward":1},{"RT":3172,"time": "2018-08-15 05:31:36pm", "schedule_type": "STATIC", "schedule_name": "random_4", "is_biased_choice":false,"side_choice": "RIGHT", "trial_number":46,"observed_reward":1,"unobserved_reward":0},{"RT":3614,"time": "2018-08-15 05:31:40pm", "schedule_type": "STATIC", "schedule_name": "random_4", "is_biased_choice":true,"side_choice": "LEFT", "trial_number":47,"observed_reward":0,"unobserved_reward":0},{"RT":3808,"time": "2018-08-15 05:31:44pm", "schedule_type": "STATIC", "schedule_name": "random_4", "is_biased_choice":false,"side_choice": "RIGHT", "trial_number":48,"observed_reward":0,"unobserved_reward":0},{"RT":3584,"time": "2018-08-15 05:31:48pm", "schedule_type": "STATIC", "schedule_name": "random_4", "is_biased_choice":true,"side_choice": "LEFT", "trial_number":49,"observed_reward":0,"unobserved_reward":0},{"RT":3688,"time": "2018-08-15 05:31:51pm", "schedule_type": "STATIC", "schedule_name": "random_4", "is_biased_choice":false,"side_choice": "RIGHT", "trial_number":50,"observed_reward":0,"unobserved_reward":0},{"RT":3760,"time": "2018-08-15 05:31:55pm", "schedule_type": "STATIC", "schedule_name": "random_4", "is_biased_choice":true,"side_choice": "LEFT", "trial_number":51,"observed_reward":0,"unobserved_reward":0},{"RT":3983,"time": "2018-08-15 05:31:59pm", "schedule_type": "STATIC", "schedule_name": "random_4", "is_biased_choice":false,"side_choice": "RIGHT", "trial_number":52,"observed_reward":0,"unobserved_reward":0},{"RT":4234,"time": "2018-08-15 05:32:03pm", "schedule_type": "STATIC", "schedule_name": "random_4", "is_biased_choice":true,"side_choice": "LEFT", "trial_number":53,"observed_reward":0,"unobserved_reward":0},{"RT":3791,"time": "2018-08-15 05:32:07pm", "schedule_type": "STATIC", "schedule_name": "random_4", "is_biased_choice":false,"side_choice": "RIGHT", "trial_number":54,"observed_reward":0,"unobserved_reward":0},{"RT":4832,"time": "2018-08-15 05:32:12pm", "schedule_type": "STATIC", "schedule_name": "random_4", "is_biased_choice":true,"side_choice": "LEFT", "trial_number":55,"observed_reward":0,"unobserved_reward":0},{"RT":3888,"time": "2018-08-15 05:32:16pm", "schedule_type": "STATIC", "schedule_name": "random_4", "is_biased_choice":false,"side_choice": "RIGHT", "trial_number":56,"observed_reward":0,"unobserved_reward":0},{"RT":3464,"time": "2018-08-15 05:32:19pm", "schedule_type": "STATIC", "schedule_name": "random_4", "is_biased_choice":true,"side_choice": "LEFT", "trial_number":57,"observed_reward":1,"unobserved_reward":0},{"RT":4048,"time": "2018-08-15 05:32:23pm", "schedule_type": "STATIC", "schedule_name": "random_4", "is_biased_choice":false,"side_choice": "RIGHT", "trial_number":58,"observed_reward":0,"unobserved_reward":0},{"RT":3353,"time": "2018-08-15 05:32:27pm", "schedule_type": "STATIC", "schedule_name": "random_4", "is_biased_choice":true,"side_choice": "LEFT", "trial_number":59,"observed_reward":0,"unobserved_reward":1},{"RT":3407,"time": "2018-08-15 05:32:30pm", "schedule_type": "STATIC", "schedule_name": "random_4", "is_biased_choice":false,"side_choice": "RIGHT", "trial_number":60,"observed_reward":1,"unobserved_reward":1},{"RT":4184,"time": "2018-08-15 05:32:34pm", "schedule_type": "STATIC", "schedule_name": "random_4", "is_biased_choice":true,"side_choice": "LEFT", "trial_number":61,"observed_reward":0,"unobserved_reward":0},{"RT":6153,"time": "2018-08-15 05:32:40pm", "schedule_type": "STATIC", "schedule_name": "random_4", "is_biased_choice":false,"side_choice": "RIGHT", "trial_number":62,"observed_reward":1,"unobserved_reward":1},{"RT":3503,"time": "2018-08-15 05:32:44pm", "schedule_type": "STATIC", "schedule_name": "random_4", "is_biased_choice":true,"side_choice": "LEFT", "trial_number":63,"observed_reward":0,"unobserved_reward":0},{"RT":4784,"time": "2018-08-15 05:32:48pm", "schedule_type": "STATIC", "schedule_name": "random_4", "is_biased_choice":false,"side_choice": "RIGHT", "trial_number":64,"observed_reward":0,"unobserved_reward":0},{"RT":4304,"time": "2018-08-15 05:32:53pm", "schedule_type": "STATIC", "schedule_name": "random_4", "is_biased_choice":true,"side_choice": "LEFT", "trial_number":65,"observed_reward":0,"unobserved_reward":0},{"RT":3704,"time": "2018-08-15 05:32:56pm", "schedule_type": "STATIC", "schedule_name": "random_4", "is_biased_choice":false,"side_choice": "RIGHT", "trial_number":66,"observed_reward":1,"unobserved_reward":0},{"RT":3520,"time": "2018-08-15 05:33:00pm", "schedule_type": "STATIC", "schedule_name": "random_4", "is_biased_choice":true,"side_choice": "LEFT", "trial_number":67,"observed_reward":0,"unobserved_reward":0},{"RT":3391,"time": "2018-08-15 05:33:04pm", "schedule_type": "STATIC", "schedule_name": "random_4", "is_biased_choice":false,"side_choice": "RIGHT", "trial_number":68,"observed_reward":0,"unobserved_reward":1},{"RT":3392,"time": "2018-08-15 05:33:07pm", "schedule_type": "STATIC", "schedule_name": "random_4", "is_biased_choice":true,"side_choice": "LEFT", "trial_number":69,"observed_reward":0,"unobserved_reward":0},{"RT":3545,"time": "2018-08-15 05:33:10pm", "schedule_type": "STATIC", "schedule_name": "random_4", "is_biased_choice":false,"side_choice": "RIGHT", "trial_number":70,"observed_reward":1,"unobserved_reward":0},{"RT":3441,"time": "2018-08-15 05:33:14pm", "schedule_type": "STATIC", "schedule_name": "random_4", "is_biased_choice":true,"side_choice": "LEFT", "trial_number":71,"observed_reward":0,"unobserved_reward":0},{"RT":3799,"time": "2018-08-15 05:33:18pm", "schedule_type": "STATIC", "schedule_name": "random_4", "is_biased_choice":false,"side_choice": "RIGHT", "trial_number":72,"observed_reward":1,"unobserved_reward":0},{"RT":3615,"time": "2018-08-15 05:33:21pm", "schedule_type": "STATIC", "schedule_name": "random_4", "is_biased_choice":true,"side_choice": "LEFT", "trial_number":73,"observed_reward":0,"unobserved_reward":0},{"RT":3336,"time": "2018-08-15 05:33:25pm", "schedule_type": "STATIC", "schedule_name": "random_4", "is_biased_choice":false,"side_choice": "RIGHT", "trial_number":74,"observed_reward":0,"unobserved_reward":0},{"RT":3784,"time": "2018-08-15 05:33:28pm", "schedule_type": "STATIC", "schedule_name": "random_4", "is_biased_choice":true,"side_choice": "LEFT", "trial_number":75,"observed_reward":0,"unobserved_reward":0},{"RT":4434,"time": "2018-08-15 05:33:33pm", "schedule_type": "STATIC", "schedule_name": "random_4", "is_biased_choice":false,"side_choice": "RIGHT", "trial_number":76,"observed_reward":0,"unobserved_reward":0},{"RT":3360,"time": "2018-08-15 05:33:37pm", "schedule_type": "STATIC", "schedule_name": "random_4", "is_biased_choice":true,"side_choice": "LEFT", "trial_number":77,"observed_reward":0,"unobserved_reward":0},{"RT":3167,"time": "2018-08-15 05:33:39pm", "schedule_type": "STATIC", "schedule_name": "random_4", "is_biased_choice":false,"side_choice": "RIGHT", "trial_number":78,"observed_reward":0,"unobserved_reward":0},{"RT":3150,"time": "2018-08-15 05:33:43pm", "schedule_type": "STATIC", "schedule_name": "random_4", "is_biased_choice":true,"side_choice": "LEFT", "trial_number":79,"observed_reward":0,"unobserved_reward":0},{"RT":4979,"time": "2018-08-15 05:33:47pm", "schedule_type": "STATIC", "schedule_name": "random_4", "is_biased_choice":false,"side_choice": "RIGHT", "trial_number":80,"observed_reward":0,"unobserved_reward":0},{"RT":3591,"time": "2018-08-15 05:33:51pm", "schedule_type": "STATIC", "schedule_name": "random_4", "is_biased_choice":true,"side_choice": "LEFT", "trial_number":81,"observed_reward":1,"unobserved_reward":1},{"RT":3200,"time": "2018-08-15 05:33:54pm", "schedule_type": "STATIC", "schedule_name": "random_4", "is_biased_choice":true,"side_choice": "LEFT", "trial_number":82,"observed_reward":1,"unobserved_reward":0},{"RT":3118,"time": "2018-08-15 05:33:58pm", "schedule_type": "STATIC", "schedule_name": "random_4", "is_biased_choice":true,"side_choice": "LEFT", "trial_number":83,"observed_reward":0,"unobserved_reward":0},{"RT":8065,"time": "2018-08-15 05:34:06pm", "schedule_type": "STATIC", "schedule_name": "random_4", "is_biased_choice":true,"side_choice": "LEFT", "trial_number":84,"observed_reward":0,"unobserved_reward":1},{"RT":3114,"time": "2018-08-15 05:34:08pm", "schedule_type": "STATIC", "schedule_name": "random_4", "is_biased_choice":false,"side_choice": "RIGHT", "trial_number":85,"observed_reward":0,"unobserved_reward":0},{"RT":3631,"time": "2018-08-15 05:34:12pm", "schedule_type": "STATIC", "schedule_name": "random_4", "is_biased_choice":false,"side_choice": "RIGHT", "trial_number":86,"observed_reward":0,"unobserved_reward":0},{"RT":3177,"time": "2018-08-15 05:34:16pm", "schedule_type": "STATIC", "schedule_name": "random_4", "is_biased_choice":false,"side_choice": "RIGHT", "trial_number":87,"observed_reward":0,"unobserved_reward":0},{"RT":3711,"time": "2018-08-15 05:34:19pm", "schedule_type": "STATIC", "schedule_name": "random_4", "is_biased_choice":true,"side_choice": "LEFT", "trial_number":88,"observed_reward":1,"unobserved_reward":0},{"RT":3040,"time": "2018-08-15 05:34:22pm", "schedule_type": "STATIC", "schedule_name": "random_4", "is_biased_choice":true,"side_choice": "LEFT", "trial_number":89,"observed_reward":0,"unobserved_reward":0},{"RT":3121,"time": "2018-08-15 05:34:26pm", "schedule_type": "STATIC", "schedule_name": "random_4", "is_biased_choice":true,"side_choice": "LEFT", "trial_number":90,"observed_reward":0,"unobserved_reward":0},{"RT":2896,"time": "2018-08-15 05:34:28pm", "schedule_type": "STATIC", "schedule_name": "random_4", "is_biased_choice":false,"side_choice": "RIGHT", "trial_number":91,"observed_reward":0,"unobserved_reward":0},{"RT":3278,"time": "2018-08-15 05:34:31pm", "schedule_type": "STATIC", "schedule_name": "random_4", "is_biased_choice":false,"side_choice": "RIGHT", "trial_number":92,"observed_reward":1,"unobserved_reward":0},{"RT":3417,"time": "2018-08-15 05:34:35pm", "schedule_type": "STATIC", "schedule_name": "random_4", "is_biased_choice":false,"side_choice": "RIGHT", "trial_number":93,"observed_reward":1,"unobserved_reward":1},{"RT":4999,"time": "2018-08-15 05:34:40pm", "schedule_type": "STATIC", "schedule_name": "random_4", "is_biased_choice":false,"side_choice": "RIGHT", "trial_number":94,"observed_reward":0,"unobserved_reward":1},{"RT":3025,"time": "2018-08-15 05:34:43pm", "schedule_type": "STATIC", "schedule_name": "random_4", "is_biased_choice":true,"side_choice": "LEFT", "trial_number":95,"observed_reward":0,"unobserved_reward":0},{"RT":3394,"time": "2018-08-15 05:34:46pm", "schedule_type": "STATIC", "schedule_name": "random_4", "is_biased_choice":true,"side_choice": "LEFT", "trial_number":96,"observed_reward":0,"unobserved_reward":0},{"RT":2966,"time": "2018-08-15 05:34:49pm", "schedule_type": "STATIC", "schedule_name": "random_4", "is_biased_choice":false,"side_choice": "RIGHT", "trial_number":97,"observed_reward":1,"unobserved_reward":0},{"RT":3048,"time": "2018-08-15 05:34:53pm", "schedule_type": "STATIC", "schedule_name": "random_4", "is_biased_choice":true,"side_choice": "LEFT", "trial_number":98,"observed_reward":0,"unobserved_reward":1},{"RT":3280,"time": "2018-08-15 05:34:55pm", "schedule_type": "STATIC", "schedule_name": "random_4", "is_biased_choice":true,"side_choice": "LEFT", "trial_number":99,"observed_reward":0,"unobserved_reward":0},