[{"RT":8515,"time": "2018-08-15 01:42:37pm", "schedule_type": "STATIC", "schedule_name": "random_4", "is_biased_choice":true,"side_choice": "RIGHT", "trial_number":0,"observed_reward":1,"unobserved_reward":0},{"RT":5672,"time": "2018-08-15 01:42:42pm", "schedule_type": "STATIC", "schedule_name": "random_4", "is_biased_choice":true,"side_choice": "RIGHT", "trial_number":1,"observed_reward":0,"unobserved_reward":0},{"RT":4769,"time": "2018-08-15 01:42:47pm", "schedule_type": "STATIC", "schedule_name": "random_4", "is_biased_choice":false,"side_choice": "LEFT", "trial_number":2,"observed_reward":0,"unobserved_reward":1},{"RT":3727,"time": "2018-08-15 01:42:51pm", "schedule_type": "STATIC", "schedule_name": "random_4", "is_biased_choice":false,"side_choice": "LEFT", "trial_number":3,"observed_reward":0,"unobserved_reward":1},{"RT":9729,"time": "2018-08-15 01:43:01pm", "schedule_type": "STATIC", "schedule_name": "random_4", "is_biased_choice":true,"side_choice": "RIGHT", "trial_number":4,"observed_reward":0,"unobserved_reward":0},{"RT":8758,"time": "2018-08-15 01:43:09pm", "schedule_type": "STATIC", "schedule_name": "random_4", "is_biased_choice":true,"side_choice": "RIGHT", "trial_number":5,"observed_reward":0,"unobserved_reward":0},{"RT":5985,"time": "2018-08-15 01:43:15pm", "schedule_type": "STATIC", "schedule_name": "random_4", "is_biased_choice":false,"side_choice": "LEFT", "trial_number":6,"observed_reward":0,"unobserved_reward":1},{"RT":4784,"time": "2018-08-15 01:43:20pm", "schedule_type": "STATIC", "schedule_name": "random_4", "is_biased_choice":true,"side_choice": "RIGHT", "trial_number":7,"observed_reward":0,"unobserved_reward":1},{"RT":33177,"time": "2018-08-15 01:43:53pm", "schedule_type": "STATIC", "schedule_name": "random_4", "is_biased_choice":false,"side_choice": "LEFT", "trial_number":8,"observed_reward":1,"unobserved_reward":0},{"RT":10671,"time": "2018-08-15 01:44:04pm", "schedule_type": "STATIC", "schedule_name": "random_4", "is_biased_choice":true,"side_choice": "RIGHT", "trial_number":9,"observed_reward":0,"unobserved_reward":0},{"RT":4680,"time": "2018-08-15 01:44:09pm", "schedule_type": "STATIC", "schedule_name": "random_4", "is_biased_choice":false,"side_choice": "LEFT", "trial_number":10,"observed_reward":1,"unobserved_reward":1},{"RT":4177,"time": "2018-08-15 01:44:13pm", "schedule_type": "STATIC", "schedule_name": "random_4", "is_biased_choice":true,"side_choice": "RIGHT", "trial_number":11,"observed_reward":0,"unobserved_reward":0},{"RT":3795,"time": "2018-08-15 01:44:17pm", "schedule_type": "STATIC", "schedule_name": "random_4", "is_biased_choice":true,"side_choice": "RIGHT", "trial_number":12,"observed_reward":1,"unobserved_reward":1},{"RT":4484,"time": "2018-08-15 01:44:23pm", "schedule_type": "STATIC", "schedule_name": "random_4", "is_biased_choice":false,"side_choice": "LEFT", "trial_number":13,"observed_reward":0,"unobserved_reward":1},{"RT":5274,"time": "2018-08-15 01:44:26pm", "schedule_type": "STATIC", "schedule_name": "random_4", "is_biased_choice":false,"side_choice": "LEFT", "trial_number":14,"observed_reward":0,"unobserved_reward":0},{"RT":3839,"time": "2018-08-15 01:44:30pm", "schedule_type": "STATIC", "schedule_name": "random_4", "is_biased_choice":true,"side_choice": "RIGHT", "trial_number":15,"observed_reward":0,"unobserved_reward":0},{"RT":5338,"time": "2018-08-15 01:44:36pm", "schedule_type": "STATIC", "schedule_name": "random_4", "is_biased_choice":true,"side_choice": "RIGHT", "trial_number":16,"observed_reward":0,"unobserved_reward":0},{"RT":3783,"time": "2018-08-15 01:44:39pm", "schedule_type": "STATIC", "schedule_name": "random_4", "is_biased_choice":false,"side_choice": "LEFT", "trial_number":17,"observed_reward":0,"unobserved_reward":0},{"RT":3736,"time": "2018-08-15 01:44:43pm", "schedule_type": "STATIC", "schedule_name": "random_4", "is_biased_choice":true,"side_choice": "RIGHT", "trial_number":18,"observed_reward":0,"unobserved_reward":0},{"RT":4136,"time": "2018-08-15 01:44:47pm", "schedule_type": "STATIC", "schedule_name": "random_4", "is_biased_choice":false,"side_choice": "LEFT", "trial_number":19,"observed_reward":1,"unobserved_reward":0},{"RT":5896,"time": "2018-08-15 01:44:53pm", "schedule_type": "STATIC", "schedule_name": "random_4", "is_biased_choice":true,"side_choice": "RIGHT", "trial_number":20,"observed_reward":0,"unobserved_reward":0},{"RT":4208,"time": "2018-08-15 01:44:57pm", "schedule_type": "STATIC", "schedule_name": "random_4", "is_biased_choice":false,"side_choice": "LEFT", "trial_number":21,"observed_reward":0,"unobserved_reward":1},{"RT":6040,"time": "2018-08-15 01:45:03pm", "schedule_type": "STATIC", "schedule_name": "random_4", "is_biased_choice":true,"side_choice": "RIGHT", "trial_number":22,"observed_reward":0,"unobserved_reward":1},{"RT":3688,"time": "2018-08-15 01:45:07pm", "schedule_type": "STATIC", "schedule_name": "random_4", "is_biased_choice":false,"side_choice": "LEFT", "trial_number":23,"observed_reward":0,"unobserved_reward":1},{"RT":6792,"time": "2018-08-15 01:45:14pm", "schedule_type": "STATIC", "schedule_name": "random_4", "is_biased_choice":true,"side_choice": "RIGHT", "trial_number":24,"observed_reward":0,"unobserved_reward":0},{"RT":6055,"time": "2018-08-15 01:45:20pm", "schedule_type": "STATIC", "schedule_name": "random_4", "is_biased_choice":false,"side_choice": "LEFT", "trial_number":25,"observed_reward":1,"unobserved_reward":1},{"RT":4826,"time": "2018-08-15 01:45:25pm", "schedule_type": "STATIC", "schedule_name": "random_4", "is_biased_choice":false,"side_choice": "LEFT", "trial_number":26,"observed_reward":0,"unobserved_reward":0},{"RT":4399,"time": "2018-08-15 01:45:29pm", "schedule_type": "STATIC", "schedule_name": "random_4", "is_biased_choice":true,"side_choice": "RIGHT", "trial_number":27,"observed_reward":0,"unobserved_reward":0},{"RT":3905,"time": "2018-08-15 01:45:33pm", "schedule_type": "STATIC", "schedule_name": "random_4", "is_biased_choice":true,"side_choice": "RIGHT", "trial_number":28,"observed_reward":1,"unobserved_reward":0},{"RT":5064,"time": "2018-08-15 01:45:38pm", "schedule_type": "STATIC", "schedule_name": "random_4", "is_biased_choice":false,"side_choice": "LEFT", "trial_number":29,"observed_reward":0,"unobserved_reward":0},{"RT":3398,"time": "2018-08-15 01:45:41pm", "schedule_type": "STATIC", "schedule_name": "random_4", "is_biased_choice":false,"side_choice": "LEFT", "trial_number":30,"observed_reward":0,"unobserved_reward":0},{"RT":3577,"time": "2018-08-15 01:45:45pm", "schedule_type": "STATIC", "schedule_name": "random_4", "is_biased_choice":true,"side_choice": "RIGHT", "trial_number":31,"observed_reward":0,"unobserved_reward":0},{"RT":3881,"time": "2018-08-15 01:45:49pm", "schedule_type": "STATIC", "schedule_name": "random_4", "is_biased_choice":true,"side_choice": "RIGHT", "trial_number":32,"observed_reward":0,"unobserved_reward":0},{"RT":3567,"time": "2018-08-15 01:45:53pm", "schedule_type": "STATIC", "schedule_name": "random_4", "is_biased_choice":true,"side_choice": "RIGHT", "trial_number":33,"observed_reward":1,"unobserved_reward":0},{"RT":3753,"time": "2018-08-15 01:45:56pm", "schedule_type": "STATIC", "schedule_name": "random_4", "is_biased_choice":false,"side_choice": "LEFT", "trial_number":34,"observed_reward":0,"unobserved_reward":1},{"RT":8091,"time": "2018-08-15 01:46:04pm", "schedule_type": "STATIC", "schedule_name": "random_4", "is_biased_choice":true,"side_choice": "RIGHT", "trial_number":35,"observed_reward":0,"unobserved_reward":0},{"RT":3556,"time": "2018-08-15 01:46:08pm", "schedule_type": "STATIC", "schedule_name": "random_4", "is_biased_choice":true,"side_choice": "RIGHT", "trial_number":36,"observed_reward":0,"unobserved_reward":0},{"RT":4912,"time": "2018-08-15 01:46:13pm", "schedule_type": "STATIC", "schedule_name": "random_4", "is_biased_choice":true,"side_choice": "RIGHT", "trial_number":37,"observed_reward":0,"unobserved_reward":1},{"RT":3904,"time": "2018-08-15 01:46:17pm", "schedule_type": "STATIC", "schedule_name": "random_4", "is_biased_choice":true,"side_choice": "RIGHT", "trial_number":38,"observed_reward":0,"unobserved_reward":1},{"RT":3201,"time": "2018-08-15 01:46:20pm", "schedule_type": "STATIC", "schedule_name": "random_4", "is_biased_choice":true,"side_choice": "RIGHT", "trial_number":39,"observed_reward":1,"unobserved_reward":0},{"RT":3598,"time": "2018-08-15 01:46:25pm", "schedule_type": "STATIC", "schedule_name": "random_4", "is_biased_choice":false,"side_choice": "LEFT", "trial_number":40,"observed_reward":0,"unobserved_reward":1},{"RT":5018,"time": "2018-08-15 01:46:29pm", "schedule_type": "STATIC", "schedule_name": "random_4", "is_biased_choice":false,"side_choice": "LEFT", "trial_number":41,"observed_reward":0,"unobserved_reward":1},{"RT":3136,"time": "2018-08-15 01:46:32pm", "schedule_type": "STATIC", "schedule_name": "random_4", "is_biased_choice":false,"side_choice": "LEFT", "trial_number":42,"observed_reward":1,"unobserved_reward":0},{"RT":4479,"time": "2018-08-15 01:46:36pm", "schedule_type": "STATIC", "schedule_name": "random_4", "is_biased_choice":true,"side_choice": "RIGHT", "trial_number":43,"observed_reward":0,"unobserved_reward":0},{"RT":4457,"time": "2018-08-15 01:46:41pm", "schedule_type": "STATIC", "schedule_name": "random_4", "is_biased_choice":true,"side_choice": "RIGHT", "trial_number":44,"observed_reward":0,"unobserved_reward":1},{"RT":3849,"time": "2018-08-15 01:46:44pm", "schedule_type": "STATIC", "schedule_name": "random_4", "is_biased_choice":true,"side_choice": "RIGHT", "trial_number":45,"observed_reward":0,"unobserved_reward":1},{"RT":3407,"time": "2018-08-15 01:46:48pm", "schedule_type": "STATIC", "schedule_name": "random_4", "is_biased_choice":true,"side_choice": "RIGHT", "trial_number":46,"observed_reward":0,"unobserved_reward":1},{"RT":3672,"time": "2018-08-15 01:46:52pm", "schedule_type": "STATIC", "schedule_name": "random_4", "is_biased_choice":true,"side_choice": "RIGHT", "trial_number":47,"observed_reward":0,"unobserved_reward":0},{"RT":3760,"time": "2018-08-15 01:46:55pm", "schedule_type": "STATIC", "schedule_name": "random_4", "is_biased_choice":false,"side_choice": "LEFT", "trial_number":48,"observed_reward":0,"unobserved_reward":0},{"RT":3784,"time": "2018-08-15 01:46:59pm", "schedule_type": "STATIC", "schedule_name": "random_4", "is_biased_choice":false,"side_choice": "LEFT", "trial_number":49,"observed_reward":0,"unobserved_reward":0},{"RT":3544,"time": "2018-08-15 01:47:03pm", "schedule_type": "STATIC", "schedule_name": "random_4", "is_biased_choice":true,"side_choice": "RIGHT", "trial_number":50,"observed_reward":0,"unobserved_reward":0},{"RT":4050,"time": "2018-08-15 01:47:07pm", "schedule_type": "STATIC", "schedule_name": "random_4", "is_biased_choice":true,"side_choice": "RIGHT", "trial_number":51,"observed_reward":0,"unobserved_reward":0},{"RT":4718,"time": "2018-08-15 01:47:11pm", "schedule_type": "STATIC", "schedule_name": "random_4", "is_biased_choice":true,"side_choice": "RIGHT", "trial_number":52,"observed_reward":0,"unobserved_reward":0},{"RT":3553,"time": "2018-08-15 01:47:15pm", "schedule_type": "STATIC", "schedule_name": "random_4", "is_biased_choice":false,"side_choice": "LEFT", "trial_number":53,"observed_reward":0,"unobserved_reward":0},{"RT":3215,"time": "2018-08-15 01:47:18pm", "schedule_type": "STATIC", "schedule_name": "random_4", "is_biased_choice":false,"side_choice": "LEFT", "trial_number":54,"observed_reward":0,"unobserved_reward":0},{"RT":3768,"time": "2018-08-15 01:47:22pm", "schedule_type": "STATIC", "schedule_name": "random_4", "is_biased_choice":false,"side_choice": "LEFT", "trial_number":55,"observed_reward":0,"unobserved_reward":0},{"RT":3513,"time": "2018-08-15 01:47:27pm", "schedule_type": "STATIC", "schedule_name": "random_4", "is_biased_choice":false,"side_choice": "LEFT", "trial_number":56,"observed_reward":0,"unobserved_reward":0},{"RT":3895,"time": "2018-08-15 01:47:29pm", "schedule_type": "STATIC", "schedule_name": "random_4", "is_biased_choice":false,"side_choice": "LEFT", "trial_number":57,"observed_reward":0,"unobserved_reward":1},{"RT":3737,"time": "2018-08-15 01:47:33pm", "schedule_type": "STATIC", "schedule_name": "random_4", "is_biased_choice":false,"side_choice": "LEFT", "trial_number":58,"observed_reward":0,"unobserved_reward":0},{"RT":3359,"time": "2018-08-15 01:47:36pm", "schedule_type": "STATIC", "schedule_name": "random_4", "is_biased_choice":true,"side_choice": "RIGHT", "trial_number":59,"observed_reward":0,"unobserved_reward":1},{"RT":5091,"time": "2018-08-15 01:47:42pm", "schedule_type": "STATIC", "schedule_name": "random_4", "is_biased_choice":true,"side_choice": "RIGHT", "trial_number":60,"observed_reward":1,"unobserved_reward":1},{"RT":4142,"time": "2018-08-15 01:47:46pm", "schedule_type": "STATIC", "schedule_name": "random_4", "is_biased_choice":false,"side_choice": "LEFT", "trial_number":61,"observed_reward":0,"unobserved_reward":0},{"RT":3816,"time": "2018-08-15 01:47:50pm", "schedule_type": "STATIC", "schedule_name": "random_4", "is_biased_choice":true,"side_choice": "RIGHT", "trial_number":62,"observed_reward":1,"unobserved_reward":1},{"RT":3423,"time": "2018-08-15 01:47:53pm", "schedule_type": "STATIC", "schedule_name": "random_4", "is_biased_choice":true,"side_choice": "RIGHT", "trial_number":63,"observed_reward":0,"unobserved_reward":0},{"RT":3498,"time": "2018-08-15 01:47:56pm", "schedule_type": "STATIC", "schedule_name": "random_4", "is_biased_choice":true,"side_choice": "RIGHT", "trial_number":64,"observed_reward":0,"unobserved_reward":0},{"RT":3439,"time": "2018-08-15 01:48:00pm", "schedule_type": "STATIC", "schedule_name": "random_4", "is_biased_choice":true,"side_choice": "RIGHT", "trial_number":65,"observed_reward":0,"unobserved_reward":0},{"RT":3632,"time": "2018-08-15 01:48:03pm", "schedule_type": "STATIC", "schedule_name": "random_4", "is_biased_choice":true,"side_choice": "RIGHT", "trial_number":66,"observed_reward":0,"unobserved_reward":1},{"RT":3463,"time": "2018-08-15 01:48:07pm", "schedule_type": "STATIC", "schedule_name": "random_4", "is_biased_choice":false,"side_choice": "LEFT", "trial_number":67,"observed_reward":0,"unobserved_reward":0},{"RT":3737,"time": "2018-08-15 01:48:11pm", "schedule_type": "STATIC", "schedule_name": "random_4", "is_biased_choice":true,"side_choice": "RIGHT", "trial_number":68,"observed_reward":1,"unobserved_reward":0},{"RT":5984,"time": "2018-08-15 01:48:17pm", "schedule_type": "STATIC", "schedule_name": "random_4", "is_biased_choice":false,"side_choice": "LEFT", "trial_number":69,"observed_reward":0,"unobserved_reward":0},{"RT":8609,"time": "2018-08-15 01:48:25pm", "schedule_type": "STATIC", "schedule_name": "random_4", "is_biased_choice":true,"side_choice": "RIGHT", "trial_number":70,"observed_reward":0,"unobserved_reward":1},{"RT":3416,"time": "2018-08-15 01:48:29pm", "schedule_type": "STATIC", "schedule_name": "random_4", "is_biased_choice":true,"side_choice": "RIGHT", "trial_number":71,"observed_reward":0,"unobserved_reward":0},{"RT":4225,"time": "2018-08-15 01:48:33pm", "schedule_type": "STATIC", "schedule_name": "random_4", "is_biased_choice":true,"side_choice": "RIGHT", "trial_number":72,"observed_reward":0,"unobserved_reward":1},{"RT":3094,"time": "2018-08-15 01:48:36pm", "schedule_type": "STATIC", "schedule_name": "random_4", "is_biased_choice":true,"side_choice": "RIGHT", "trial_number":73,"observed_reward":0,"unobserved_reward":0},{"RT":3369,"time": "2018-08-15 01:48:39pm", "schedule_type": "STATIC", "schedule_name": "random_4", "is_biased_choice":true,"side_choice": "RIGHT", "trial_number":74,"observed_reward":0,"unobserved_reward":0},{"RT":3096,"time": "2018-08-15 01:48:43pm", "schedule_type": "STATIC", "schedule_name": "random_4", "is_biased_choice":false,"side_choice": "LEFT", "trial_number":75,"observed_reward":0,"unobserved_reward":0},{"RT":3568,"time": "2018-08-15 01:48:46pm", "schedule_type": "STATIC", "schedule_name": "random_4", "is_biased_choice":false,"side_choice": "LEFT", "trial_number":76,"observed_reward":0,"unobserved_reward":0},{"RT":3607,"time": "2018-08-15 01:48:50pm", "schedule_type": "STATIC", "schedule_name": "random_4", "is_biased_choice":true,"side_choice": "RIGHT", "trial_number":77,"observed_reward":0,"unobserved_reward":0},{"RT":3539,"time": "2018-08-15 01:48:53pm", "schedule_type": "STATIC", "schedule_name": "random_4", "is_biased_choice":true,"side_choice": "RIGHT", "trial_number":78,"observed_reward":0,"unobserved_reward":0},{"RT":3197,"time": "2018-08-15 01:48:56pm", "schedule_type": "STATIC", "schedule_name": "random_4", "is_biased_choice":true,"side_choice": "RIGHT", "trial_number":79,"observed_reward":0,"unobserved_reward":0},{"RT":4144,"time": "2018-08-15 01:49:01pm", "schedule_type": "STATIC", "schedule_name": "random_4", "is_biased_choice":true,"side_choice": "RIGHT", "trial_number":80,"observed_reward":0,"unobserved_reward":0},{"RT":3081,"time": "2018-08-15 01:49:04pm", "schedule_type": "STATIC", "schedule_name": "random_4", "is_biased_choice":false,"side_choice": "LEFT", "trial_number":81,"observed_reward":1,"unobserved_reward":1},{"RT":4591,"time": "2018-08-15 01:49:08pm", "schedule_type": "STATIC", "schedule_name": "random_4", "is_biased_choice":true,"side_choice": "RIGHT", "trial_number":82,"observed_reward":1,"unobserved_reward":0},{"RT":3344,"time": "2018-08-15 01:49:12pm", "schedule_type": "STATIC", "schedule_name": "random_4", "is_biased_choice":false,"side_choice": "LEFT", "trial_number":83,"observed_reward":0,"unobserved_reward":0},{"RT":3353,"time": "2018-08-15 01:49:15pm", "schedule_type": "STATIC", "schedule_name": "random_4", "is_biased_choice":true,"side_choice": "RIGHT", "trial_number":84,"observed_reward":0,"unobserved_reward":1},{"RT":3734,"time": "2018-08-15 01:49:19pm", "schedule_type": "STATIC", "schedule_name": "random_4", "is_biased_choice":true,"side_choice": "RIGHT", "trial_number":85,"observed_reward":0,"unobserved_reward":0},{"RT":3353,"time": "2018-08-15 01:49:22pm", "schedule_type": "STATIC", "schedule_name": "random_4", "is_biased_choice":false,"side_choice": "LEFT", "trial_number":86,"observed_reward":0,"unobserved_reward":0},{"RT":3631,"time": "2018-08-15 01:49:26pm", "schedule_type": "STATIC", "schedule_name": "random_4", "is_biased_choice":false,"side_choice": "LEFT", "trial_number":87,"observed_reward":0,"unobserved_reward":0},{"RT":3674,"time": "2018-08-15 01:49:29pm", "schedule_type": "STATIC", "schedule_name": "random_4", "is_biased_choice":true,"side_choice": "RIGHT", "trial_number":88,"observed_reward":1,"unobserved_reward":0},{"RT":5000,"time": "2018-08-15 01:49:34pm", "schedule_type": "STATIC", "schedule_name": "random_4", "is_biased_choice":false,"side_choice": "LEFT", "trial_number":89,"observed_reward":0,"unobserved_reward":0},{"RT":3023,"time": "2018-08-15 01:49:37pm", "schedule_type": "STATIC", "schedule_name": "random_4", "is_biased_choice":true,"side_choice": "RIGHT", "trial_number":90,"observed_reward":0,"unobserved_reward":0},{"RT":2936,"time": "2018-08-15 01:49:40pm", "schedule_type": "STATIC", "schedule_name": "random_4", "is_biased_choice":false,"side_choice": "LEFT", "trial_number":91,"observed_reward":0,"unobserved_reward":0},{"RT":3544,"time": "2018-08-15 01:49:44pm", "schedule_type": "STATIC", "schedule_name": "random_4", "is_biased_choice":true,"side_choice": "RIGHT", "trial_number":92,"observed_reward":0,"unobserved_reward":1},{"RT":3159,"time": "2018-08-15 01:49:47pm", "schedule_type": "STATIC", "schedule_name": "random_4", "is_biased_choice":true,"side_choice": "RIGHT", "trial_number":93,"observed_reward":1,"unobserved_reward":1},{"RT":3769,"time": "2018-08-15 01:49:51pm", "schedule_type": "STATIC", "schedule_name": "random_4", "is_biased_choice":true,"side_choice": "RIGHT", "trial_number":94,"observed_reward":1,"unobserved_reward":0},{"RT":3440,"time": "2018-08-15 01:49:54pm", "schedule_type": "STATIC", "schedule_name": "random_4", "is_biased_choice":false,"side_choice": "LEFT", "trial_number":95,"observed_reward":0,"unobserved_reward":0},{"RT":3064,"time": "2018-08-15 01:49:57pm", "schedule_type": "STATIC", "schedule_name": "random_4", "is_biased_choice":true,"side_choice": "RIGHT", "trial_number":96,"observed_reward":0,"unobserved_reward":0},{"RT":3608,"time": "2018-08-15 01:50:01pm", "schedule_type": "STATIC", "schedule_name": "random_4", "is_biased_choice":true,"side_choice": "RIGHT", "trial_number":97,"observed_reward":0,"unobserved_reward":1},{"RT":3560,"time": "2018-08-15 01:50:04pm", "schedule_type": "STATIC", "schedule_name": "random_4", "is_biased_choice":true,"side_choice": "RIGHT", "trial_number":98,"observed_reward":0,"unobserved_reward":1},