trial_number, time, schedule_type, schedule_name, is_biased_choice, side_choice, RT, observed_reward, unobserved_reward, biased_reward, unbiased_reward
0,2018-08-15 03:37:37pm, STATIC, random_4, false, RIGHT, 4485, 0, 1, 1, 0
1,2018-08-15 03:37:40pm, STATIC, random_4, true, LEFT, 3182, 0, 0, 0, 0
2,2018-08-15 03:37:42pm, STATIC, random_4, false, RIGHT, 2793, 0, 1, 1, 0
3,2018-08-15 03:37:46pm, STATIC, random_4, true, LEFT, 3024, 1, 0, 1, 0
4,2018-08-15 03:37:48pm, STATIC, random_4, true, LEFT, 2656, 0, 0, 0, 0
5,2018-08-15 03:37:51pm, STATIC, random_4, false, RIGHT, 3439, 0, 0, 0, 0
6,2018-08-15 03:37:56pm, STATIC, random_4, true, LEFT, 4289, 1, 0, 1, 0
7,2018-08-15 03:37:59pm, STATIC, random_4, true, LEFT, 3824, 0, 1, 0, 1
8,2018-08-15 03:38:03pm, STATIC, random_4, true, LEFT, 3088, 0, 1, 0, 1
9,2018-08-15 03:38:05pm, STATIC, random_4, false, RIGHT, 2488, 0, 0, 0, 0
10,2018-08-15 03:38:08pm, STATIC, random_4, true, LEFT, 2768, 1, 1, 1, 1
11,2018-08-15 03:38:12pm, STATIC, random_4, true, LEFT, 3751, 0, 0, 0, 0
12,2018-08-15 03:38:15pm, STATIC, random_4, false, RIGHT, 2920, 1, 1, 1, 1
13,2018-08-15 03:38:17pm, STATIC, random_4, false, RIGHT, 2432, 0, 1, 1, 0
14,2018-08-15 03:38:20pm, STATIC, random_4, true, LEFT, 2833, 0, 0, 0, 0
15,2018-08-15 03:38:23pm, STATIC, random_4, false, RIGHT, 2743, 0, 0, 0, 0
16,2018-08-15 03:38:25pm, STATIC, random_4, true, LEFT, 2536, 0, 0, 0, 0
17,2018-08-15 03:38:28pm, STATIC, random_4, false, RIGHT, 2408, 0, 0, 0, 0
18,2018-08-15 03:38:45pm, STATIC, random_4, true, LEFT, 16849, 0, 0, 0, 0
19,2018-08-15 03:38:50pm, STATIC, random_4, false, RIGHT, 5184, 1, 0, 0, 1
20,2018-08-15 03:38:54pm, STATIC, random_4, false, RIGHT, 4247, 0, 0, 0, 0
21,2018-08-15 03:39:07pm, STATIC, random_4, true, LEFT, 13304, 1, 0, 1, 0
22,2018-08-15 03:39:13pm, STATIC, random_4, true, LEFT, 5472, 0, 1, 0, 1
23,2018-08-15 03:39:18pm, STATIC, random_4, true, LEFT, 4672, 1, 0, 1, 0
24,2018-08-15 03:39:21pm, STATIC, random_4, false, RIGHT, 3368, 0, 0, 0, 0
25,2018-08-15 03:39:24pm, STATIC, random_4, true, LEFT, 2896, 1, 1, 1, 1
26,2018-08-15 03:39:38pm, STATIC, random_4, true, LEFT, 14616, 0, 0, 0, 0
27,2018-08-15 03:39:41pm, STATIC, random_4, false, RIGHT, 2808, 0, 0, 0, 0
28,2018-08-15 03:39:44pm, STATIC, random_4, true, LEFT, 2712, 1, 0, 1, 0
29,2018-08-15 03:39:48pm, STATIC, random_4, true, LEFT, 4392, 0, 0, 0, 0
30,2018-08-15 03:39:53pm, STATIC, random_4, true, LEFT, 4528, 0, 0, 0, 0
31,2018-08-15 03:39:57pm, STATIC, random_4, false, RIGHT, 4535, 0, 0, 0, 0
32,2018-08-15 03:40:01pm, STATIC, random_4, true, LEFT, 3633, 0, 0, 0, 0
33,2018-08-15 03:40:04pm, STATIC, random_4, false, RIGHT, 2919, 0, 1, 1, 0
34,2018-08-15 03:40:37pm, STATIC, random_4, true, LEFT, 33385, 1, 0, 1, 0
35,2018-08-15 03:40:41pm, STATIC, random_4, true, LEFT, 3664, 0, 0, 0, 0
36,2018-08-15 03:40:44pm, STATIC, random_4, false, RIGHT, 2991, 0, 0, 0, 0
37,2018-08-15 03:40:46pm, STATIC, random_4, true, LEFT, 2296, 0, 1, 0, 1
38,2018-08-15 03:40:49pm, STATIC, random_4, false, RIGHT, 2845, 1, 0, 0, 1
39,2018-08-15 03:40:53pm, STATIC, random_4, false, RIGHT, 4083, 0, 1, 1, 0
40,2018-08-15 03:40:56pm, STATIC, random_4, true, LEFT, 2673, 1, 0, 1, 0
41,2018-08-15 03:40:59pm, STATIC, random_4, true, LEFT, 3015, 1, 0, 1, 0
42,2018-08-15 03:41:01pm, STATIC, random_4, true, LEFT, 2601, 0, 1, 0, 1
43,2018-08-15 03:41:04pm, STATIC, random_4, false, RIGHT, 2768, 0, 0, 0, 0
44,2018-08-15 03:41:07pm, STATIC, random_4, true, LEFT, 2680, 0, 1, 0, 1
45,2018-08-15 03:41:21pm, STATIC, random_4, false, RIGHT, 14224, 1, 0, 0, 1
46,2018-08-15 03:41:24pm, STATIC, random_4, false, RIGHT, 2712, 1, 0, 0, 1
47,2018-08-15 03:41:26pm, STATIC, random_4, false, RIGHT, 2552, 0, 0, 0, 0
48,2018-08-15 03:41:30pm, STATIC, random_4, true, LEFT, 3528, 0, 0, 0, 0
49,2018-08-15 03:41:33pm, STATIC, random_4, false, RIGHT, 3000, 0, 0, 0, 0
50,2018-08-15 03:41:36pm, STATIC, random_4, true, LEFT, 2848, 0, 0, 0, 0
51,2018-08-15 03:41:38pm, STATIC, random_4, false, RIGHT, 2967, 0, 0, 0, 0
52,2018-08-15 03:41:41pm, STATIC, random_4, true, LEFT, 2377, 0, 0, 0, 0
53,2018-08-15 03:41:44pm, STATIC, random_4, false, RIGHT, 3104, 0, 0, 0, 0
54,2018-08-15 03:41:47pm, STATIC, random_4, true, LEFT, 2815, 0, 0, 0, 0
55,2018-08-15 03:41:57pm, STATIC, random_4, true, LEFT, 10081, 0, 0, 0, 0
56,2018-08-15 03:42:02pm, STATIC, random_4, true, LEFT, 4672, 0, 0, 0, 0
57,2018-08-15 03:42:05pm, STATIC, random_4, false, RIGHT, 2776, 0, 1, 1, 0
58,2018-08-15 03:42:07pm, STATIC, random_4, true, LEFT, 2416, 0, 0, 0, 0
59,2018-08-15 03:42:11pm, STATIC, random_4, false, RIGHT, 4008, 1, 0, 0, 1
60,2018-08-15 03:42:14pm, STATIC, random_4, false, RIGHT, 3080, 1, 1, 1, 1
61,2018-08-15 03:42:16pm, STATIC, random_4, false, RIGHT, 2617, 0, 0, 0, 0
62,2018-08-15 03:42:19pm, STATIC, random_4, true, LEFT, 2471, 1, 1, 1, 1
63,2018-08-15 03:42:22pm, STATIC, random_4, true, LEFT, 3160, 0, 0, 0, 0
64,2018-08-15 03:42:25pm, STATIC, random_4, false, RIGHT, 2832, 0, 0, 0, 0
65,2018-08-15 03:42:28pm, STATIC, random_4, true, LEFT, 2800, 0, 0, 0, 0
66,2018-08-15 03:42:36pm, STATIC, random_4, false, RIGHT, 8368, 1, 0, 0, 1
67,2018-08-15 03:42:39pm, STATIC, random_4, false, RIGHT, 2745, 0, 0, 0, 0
68,2018-08-15 03:42:42pm, STATIC, random_4, true, LEFT, 2824, 1, 0, 1, 0
69,2018-08-15 03:42:44pm, STATIC, random_4, true, LEFT, 2495, 0, 0, 0, 0
70,2018-08-15 03:42:47pm, STATIC, random_4, false, RIGHT, 2512, 1, 0, 0, 1
71,2018-08-15 03:42:50pm, STATIC, random_4, false, RIGHT, 2993, 0, 0, 0, 0
72,2018-08-15 03:42:53pm, STATIC, random_4, false, RIGHT, 3063, 1, 0, 0, 1
73,2018-08-15 03:43:24pm, STATIC, random_4, true, LEFT, 5248, 0, 0, 0, 0
74,2018-08-15 03:43:26pm, STATIC, random_4, false, RIGHT, 2392, 0, 0, 0, 0
75,2018-08-15 03:43:29pm, STATIC, random_4, true, LEFT, 2512, 0, 0, 0, 0
76,2018-08-15 03:43:31pm, STATIC, random_4, false, RIGHT, 2416, 0, 0, 0, 0
77,2018-08-15 03:43:33pm, STATIC, random_4, false, RIGHT, 2279, 0, 0, 0, 0
78,2018-08-15 03:43:36pm, STATIC, random_4, false, RIGHT, 2585, 0, 0, 0, 0
79,2018-08-15 03:43:40pm, STATIC, random_4, false, RIGHT, 3223, 0, 0, 0, 0
80,2018-08-15 03:43:41pm, STATIC, random_4, true, LEFT, 2232, 0, 0, 0, 0
81,2018-08-15 03:43:45pm, STATIC, random_4, false, RIGHT, 3568, 1, 1, 1, 1
82,2018-08-15 03:43:48pm, STATIC, random_4, false, RIGHT, 2809, 0, 1, 1, 0
83,2018-08-15 03:43:51pm, STATIC, random_4, true, LEFT, 2712, 0, 0, 0, 0
84,2018-08-15 03:43:53pm, STATIC, random_4, false, RIGHT, 2448, 1, 0, 0, 1
85,2018-08-15 03:43:56pm, STATIC, random_4, false, RIGHT, 2671, 0, 0, 0, 0
86,2018-08-15 03:43:58pm, STATIC, random_4, false, RIGHT, 2608, 0, 0, 0, 0
87,2018-08-15 03:44:01pm, STATIC, random_4, true, LEFT, 2529, 0, 0, 0, 0
88,2018-08-15 03:44:03pm, STATIC, random_4, false, RIGHT, 2455, 0, 1, 1, 0
89,2018-08-15 03:44:06pm, STATIC, random_4, true, LEFT, 2456, 0, 0, 0, 0
90,2018-08-15 03:44:08pm, STATIC, random_4, false, RIGHT, 2320, 0, 0, 0, 0
91,2018-08-15 03:44:11pm, STATIC, random_4, true, LEFT, 2673, 0, 0, 0, 0
92,2018-08-15 03:44:13pm, STATIC, random_4, true, LEFT, 2639, 0, 1, 0, 1
