trial_number, time, schedule_type, schedule_name, is_biased_choice, side_choice, RT, observed_reward, unobserved_reward, biased_reward, unbiased_reward
0,2018-08-23 04:47:35pm, dynamic, 1_6_vs_2_6, false, RIGHT, 7140, 0, 0, 0, 0
1,2018-08-23 04:47:41pm, dynamic, 1_6_vs_2_6, false, RIGHT, 5819, 1, 0, 0, 1
2,2018-08-23 04:47:46pm, dynamic, 1_6_vs_2_6, true, LEFT, 4946, 0, 0, 0, 0
3,2018-08-23 04:47:50pm, dynamic, 1_6_vs_2_6, true, LEFT, 4062, 1, 0, 1, 0
4,2018-08-23 04:47:55pm, dynamic, 1_6_vs_2_6, true, LEFT, 5345, 0, 1, 0, 1
5,2018-08-23 04:48:00pm, dynamic, 1_6_vs_2_6, true, LEFT, 5406, 0, 0, 0, 0
6,2018-08-23 04:48:05pm, dynamic, 1_6_vs_2_6, true, LEFT, 4246, 0, 0, 0, 0
7,2018-08-23 04:48:09pm, dynamic, 1_6_vs_2_6, false, RIGHT, 3833, 1, 0, 0, 1
8,2018-08-23 04:48:13pm, dynamic, 1_6_vs_2_6, true, LEFT, 4151, 1, 0, 1, 0
9,2018-08-23 04:48:17pm, dynamic, 1_6_vs_2_6, false, RIGHT, 3857, 0, 0, 0, 0
10,2018-08-23 04:48:21pm, dynamic, 1_6_vs_2_6, true, LEFT, 4577, 1, 0, 1, 0
11,2018-08-23 04:48:26pm, dynamic, 1_6_vs_2_6, false, RIGHT, 4577, 0, 0, 0, 0
12,2018-08-23 04:48:31pm, dynamic, 1_6_vs_2_6, true, LEFT, 5418, 1, 0, 1, 0
13,2018-08-23 04:48:35pm, dynamic, 1_6_vs_2_6, true, LEFT, 3859, 0, 0, 0, 0
14,2018-08-23 04:48:38pm, dynamic, 1_6_vs_2_6, false, RIGHT, 3379, 0, 0, 0, 0
15,2018-08-23 04:48:42pm, dynamic, 1_6_vs_2_6, false, RIGHT, 3906, 0, 1, 1, 0
16,2018-08-23 04:48:46pm, dynamic, 1_6_vs_2_6, true, LEFT, 3682, 0, 0, 0, 0
17,2018-08-23 04:48:53pm, dynamic, 1_6_vs_2_6, false, RIGHT, 6759, 0, 1, 1, 0
18,2018-08-23 04:48:56pm, dynamic, 1_6_vs_2_6, true, LEFT, 3795, 0, 0, 0, 0
19,2018-08-23 04:49:01pm, dynamic, 1_6_vs_2_6, false, RIGHT, 4347, 1, 1, 1, 1
20,2018-08-23 04:49:05pm, dynamic, 1_6_vs_2_6, false, RIGHT, 4696, 0, 1, 1, 0
21,2018-08-23 04:49:09pm, dynamic, 1_6_vs_2_6, true, LEFT, 3902, 0, 0, 0, 0
22,2018-08-23 04:49:13pm, dynamic, 1_6_vs_2_6, false, RIGHT, 3265, 0, 0, 0, 0
23,2018-08-23 04:49:17pm, dynamic, 1_6_vs_2_6, false, RIGHT, 4027, 0, 0, 0, 0
24,2018-08-23 04:49:21pm, dynamic, 1_6_vs_2_6, true, LEFT, 4861, 1, 0, 1, 0
25,2018-08-23 04:49:26pm, dynamic, 1_6_vs_2_6, true, LEFT, 3824, 1, 0, 1, 0
26,2018-08-23 04:49:30pm, dynamic, 1_6_vs_2_6, false, RIGHT, 4494, 1, 1, 1, 1
27,2018-08-23 04:49:33pm, dynamic, 1_6_vs_2_6, false, RIGHT, 3730, 0, 1, 1, 0
28,2018-08-23 04:49:37pm, dynamic, 1_6_vs_2_6, true, LEFT, 3131, 1, 0, 1, 0
29,2018-08-23 04:49:41pm, dynamic, 1_6_vs_2_6, true, LEFT, 4117, 1, 0, 1, 0
30,2018-08-23 04:49:45pm, dynamic, 1_6_vs_2_6, false, RIGHT, 4284, 0, 1, 1, 0
31,2018-08-23 04:49:49pm, dynamic, 1_6_vs_2_6, false, RIGHT, 3797, 0, 0, 0, 0
32,2018-08-23 04:49:53pm, dynamic, 1_6_vs_2_6, true, LEFT, 3485, 1, 0, 1, 0
33,2018-08-23 04:49:56pm, dynamic, 1_6_vs_2_6, true, LEFT, 3882, 0, 1, 0, 1
34,2018-08-23 04:49:59pm, dynamic, 1_6_vs_2_6, false, RIGHT, 3285, 1, 0, 0, 1
35,2018-08-23 04:50:03pm, dynamic, 1_6_vs_2_6, false, RIGHT, 3668, 0, 0, 0, 0
36,2018-08-23 04:50:07pm, dynamic, 1_6_vs_2_6, true, LEFT, 3564, 0, 0, 0, 0
37,2018-08-23 04:50:10pm, dynamic, 1_6_vs_2_6, false, RIGHT, 3318, 0, 0, 0, 0
38,2018-08-23 04:50:14pm, dynamic, 1_6_vs_2_6, true, LEFT, 3856, 1, 0, 1, 0
39,2018-08-23 04:50:17pm, dynamic, 1_6_vs_2_6, true, LEFT, 3308, 0, 1, 0, 1
40,2018-08-23 04:50:20pm, dynamic, 1_6_vs_2_6, false, RIGHT, 3381, 0, 0, 0, 0
41,2018-08-23 04:50:27pm, dynamic, 1_6_vs_2_6, true, LEFT, 6252, 0, 0, 0, 0
42,2018-08-23 04:50:31pm, dynamic, 1_6_vs_2_6, false, RIGHT, 3921, 0, 0, 0, 0
43,2018-08-23 04:50:34pm, dynamic, 1_6_vs_2_6, true, LEFT, 3367, 1, 0, 1, 0
44,2018-08-23 04:50:39pm, dynamic, 1_6_vs_2_6, false, RIGHT, 4880, 0, 0, 0, 0
45,2018-08-23 04:50:42pm, dynamic, 1_6_vs_2_6, true, LEFT, 3331, 0, 0, 0, 0
46,2018-08-23 04:50:45pm, dynamic, 1_6_vs_2_6, true, LEFT, 3008, 1, 1, 1, 1
47,2018-08-23 04:50:49pm, dynamic, 1_6_vs_2_6, true, LEFT, 3975, 0, 0, 0, 0
48,2018-08-23 04:50:52pm, dynamic, 1_6_vs_2_6, false, RIGHT, 3102, 0, 0, 0, 0
49,2018-08-23 04:50:56pm, dynamic, 1_6_vs_2_6, true, LEFT, 3255, 0, 0, 0, 0
50,2018-08-23 04:50:59pm, dynamic, 1_6_vs_2_6, true, LEFT, 3467, 0, 0, 0, 0
51,2018-08-23 04:51:03pm, dynamic, 1_6_vs_2_6, true, LEFT, 3223, 0, 0, 0, 0
52,2018-08-23 04:51:05pm, dynamic, 1_6_vs_2_6, false, RIGHT, 3167, 0, 0, 0, 0
53,2018-08-23 04:51:09pm, dynamic, 1_6_vs_2_6, true, LEFT, 3171, 1, 0, 1, 0
54,2018-08-23 04:51:13pm, dynamic, 1_6_vs_2_6, false, RIGHT, 4425, 0, 0, 0, 0
55,2018-08-23 04:51:17pm, dynamic, 1_6_vs_2_6, true, LEFT, 3404, 0, 0, 0, 0
56,2018-08-23 04:51:20pm, dynamic, 1_6_vs_2_6, false, RIGHT, 3621, 0, 0, 0, 0
57,2018-08-23 04:51:24pm, dynamic, 1_6_vs_2_6, true, LEFT, 3368, 0, 0, 0, 0
58,2018-08-23 04:51:27pm, dynamic, 1_6_vs_2_6, true, LEFT, 3283, 1, 1, 1, 1
59,2018-08-23 04:51:30pm, dynamic, 1_6_vs_2_6, true, LEFT, 3475, 0, 0, 0, 0
60,2018-08-23 04:51:34pm, dynamic, 1_6_vs_2_6, true, LEFT, 3762, 0, 0, 0, 0
61,2018-08-23 04:51:37pm, dynamic, 1_6_vs_2_6, true, LEFT, 3178, 1, 0, 1, 0
62,2018-08-23 04:51:41pm, dynamic, 1_6_vs_2_6, false, RIGHT, 3895, 0, 0, 0, 0
63,2018-08-23 04:51:44pm, dynamic, 1_6_vs_2_6, true, LEFT, 3336, 0, 1, 0, 1
64,2018-08-23 04:51:50pm, dynamic, 1_6_vs_2_6, true, LEFT, 5640, 1, 0, 1, 0
65,2018-08-23 04:51:55pm, dynamic, 1_6_vs_2_6, false, RIGHT, 4916, 0, 0, 0, 0
66,2018-08-23 04:51:59pm, dynamic, 1_6_vs_2_6, true, LEFT, 4039, 0, 1, 0, 1
67,2018-08-23 04:52:04pm, dynamic, 1_6_vs_2_6, true, LEFT, 4721, 0, 1, 0, 1
68,2018-08-23 04:52:09pm, dynamic, 1_6_vs_2_6, true, LEFT, 4712, 0, 0, 0, 0
69,2018-08-23 04:52:12pm, dynamic, 1_6_vs_2_6, false, RIGHT, 3522, 0, 1, 1, 0
70,2018-08-23 04:52:16pm, dynamic, 1_6_vs_2_6, true, LEFT, 3739, 0, 0, 0, 0
71,2018-08-23 04:52:19pm, dynamic, 1_6_vs_2_6, false, RIGHT, 3239, 0, 1, 1, 0
72,2018-08-23 04:52:22pm, dynamic, 1_6_vs_2_6, true, LEFT, 3252, 0, 0, 0, 0
73,2018-08-23 04:52:25pm, dynamic, 1_6_vs_2_6, false, RIGHT, 2814, 0, 0, 0, 0
74,2018-08-23 04:52:28pm, dynamic, 1_6_vs_2_6, true, LEFT, 3068, 0, 0, 0, 0
75,2018-08-23 04:52:32pm, dynamic, 1_6_vs_2_6, true, LEFT, 3548, 0, 0, 0, 0
76,2018-08-23 04:52:35pm, dynamic, 1_6_vs_2_6, true, LEFT, 3200, 0, 0, 0, 0
77,2018-08-23 04:52:38pm, dynamic, 1_6_vs_2_6, false, RIGHT, 3021, 0, 0, 0, 0
78,2018-08-23 04:52:41pm, dynamic, 1_6_vs_2_6, true, LEFT, 3499, 0, 0, 0, 0
79,2018-08-23 04:52:44pm, dynamic, 1_6_vs_2_6, false, RIGHT, 3070, 0, 0, 0, 0
80,2018-08-23 04:52:48pm, dynamic, 1_6_vs_2_6, false, RIGHT, 3245, 0, 0, 0, 0
81,2018-08-23 04:52:51pm, dynamic, 1_6_vs_2_6, true, LEFT, 3455, 0, 0, 0, 0
82,2018-08-23 04:52:54pm, dynamic, 1_6_vs_2_6, false, RIGHT, 3005, 0, 0, 0, 0
83,2018-08-23 04:53:00pm, dynamic, 1_6_vs_2_6, false, RIGHT, 5371, 0, 0, 0, 0
84,2018-08-23 04:53:03pm, dynamic, 1_6_vs_2_6, false, RIGHT, 3336, 0, 0, 0, 0
85,2018-08-23 04:53:07pm, dynamic, 1_6_vs_2_6, true, LEFT, 3616, 0, 0, 0, 0
86,2018-08-23 04:53:10pm, dynamic, 1_6_vs_2_6, true, LEFT, 3812, 0, 0, 0, 0
87,2018-08-23 04:53:13pm, dynamic, 1_6_vs_2_6, true, LEFT, 2972, 0, 0, 0, 0
88,2018-08-23 04:53:17pm, dynamic, 1_6_vs_2_6, true, LEFT, 3019, 0, 1, 0, 1
89,2018-08-23 04:53:19pm, dynamic, 1_6_vs_2_6, true, LEFT, 3227, 0, 1, 0, 1
90,2018-08-23 04:53:23pm, dynamic, 1_6_vs_2_6, true, LEFT, 3189, 0, 1, 0, 1
91,2018-08-23 04:53:27pm, dynamic, 1_6_vs_2_6, false, RIGHT, 3206, 1, 0, 0, 1
92,2018-08-23 04:53:31pm, dynamic, 1_6_vs_2_6, true, LEFT, 4897, 0, 1, 0, 1
93,2018-08-23 04:53:34pm, dynamic, 1_6_vs_2_6, false, RIGHT, 3090, 1, 0, 0, 1
94,2018-08-23 04:53:38pm, dynamic, 1_6_vs_2_6, false, RIGHT, 3465, 1, 0, 0, 1
95,2018-08-23 04:53:41pm, dynamic, 1_6_vs_2_6, false, RIGHT, 3802, 1, 0, 0, 1
96,2018-08-23 04:53:45pm, dynamic, 1_6_vs_2_6, false, RIGHT, 3498, 1, 0, 0, 1
97,2018-08-23 04:53:48pm, dynamic, 1_6_vs_2_6, false, RIGHT, 3621, 1, 0, 0, 1
98,2018-08-23 04:53:52pm, dynamic, 1_6_vs_2_6, false, RIGHT, 3368, 1, 0, 0, 1
99,2018-08-23 04:53:55pm, dynamic, 1_6_vs_2_6, false, RIGHT, 3085, 1, 0, 0, 1
