trial_number, time, schedule_type, schedule_name, is_biased_choice, side_choice, RT, observed_reward, unobserved_reward, biased_reward, unbiased_reward
0,2018-08-23 04:48:53pm, dynamic, 1_6_vs_2_6, false, RIGHT, 15591, 1, 0, 0, 1
1,2018-08-23 04:48:58pm, dynamic, 1_6_vs_2_6, false, RIGHT, 5250, 0, 1, 1, 0
2,2018-08-23 04:49:03pm, dynamic, 1_6_vs_2_6, false, RIGHT, 4801, 1, 1, 1, 1
3,2018-08-23 04:49:07pm, dynamic, 1_6_vs_2_6, true, LEFT, 4063, 1, 0, 1, 0
4,2018-08-23 04:49:10pm, dynamic, 1_6_vs_2_6, false, RIGHT, 3748, 0, 1, 1, 0
5,2018-08-23 04:49:14pm, dynamic, 1_6_vs_2_6, false, RIGHT, 3608, 0, 1, 1, 0
6,2018-08-23 04:49:18pm, dynamic, 1_6_vs_2_6, false, RIGHT, 3708, 0, 1, 1, 0
7,2018-08-23 04:49:21pm, dynamic, 1_6_vs_2_6, true, LEFT, 3211, 1, 0, 1, 0
8,2018-08-23 04:49:24pm, dynamic, 1_6_vs_2_6, true, LEFT, 3332, 0, 0, 0, 0
9,2018-08-23 04:49:28pm, dynamic, 1_6_vs_2_6, false, RIGHT, 3506, 0, 0, 0, 0
10,2018-08-23 04:49:32pm, dynamic, 1_6_vs_2_6, true, LEFT, 4130, 1, 0, 1, 0
11,2018-08-23 04:49:35pm, dynamic, 1_6_vs_2_6, true, LEFT, 3469, 0, 0, 0, 0
12,2018-08-23 04:49:39pm, dynamic, 1_6_vs_2_6, false, RIGHT, 3425, 0, 0, 0, 0
13,2018-08-23 04:49:42pm, dynamic, 1_6_vs_2_6, false, RIGHT, 3367, 0, 0, 0, 0
14,2018-08-23 04:49:46pm, dynamic, 1_6_vs_2_6, false, RIGHT, 4312, 0, 0, 0, 0
15,2018-08-23 04:49:50pm, dynamic, 1_6_vs_2_6, true, LEFT, 3441, 0, 0, 0, 0
16,2018-08-23 04:49:53pm, dynamic, 1_6_vs_2_6, true, LEFT, 3291, 0, 0, 0, 0
17,2018-08-23 04:49:56pm, dynamic, 1_6_vs_2_6, false, RIGHT, 2953, 0, 0, 0, 0
18,2018-08-23 04:50:00pm, dynamic, 1_6_vs_2_6, false, RIGHT, 3759, 0, 0, 0, 0
19,2018-08-23 04:50:04pm, dynamic, 1_6_vs_2_6, false, RIGHT, 3731, 0, 1, 1, 0
20,2018-08-23 04:50:08pm, dynamic, 1_6_vs_2_6, false, RIGHT, 3980, 0, 0, 0, 0
21,2018-08-23 04:50:11pm, dynamic, 1_6_vs_2_6, false, RIGHT, 3564, 1, 0, 0, 1
22,2018-08-23 04:50:15pm, dynamic, 1_6_vs_2_6, false, RIGHT, 3865, 0, 0, 0, 0
23,2018-08-23 04:50:19pm, dynamic, 1_6_vs_2_6, false, RIGHT, 3958, 0, 0, 0, 0
24,2018-08-23 04:50:22pm, dynamic, 1_6_vs_2_6, false, RIGHT, 3273, 0, 1, 1, 0
25,2018-08-23 04:50:25pm, dynamic, 1_6_vs_2_6, false, RIGHT, 2977, 0, 1, 1, 0
26,2018-08-23 04:50:29pm, dynamic, 1_6_vs_2_6, false, RIGHT, 3240, 0, 0, 0, 0
27,2018-08-23 04:50:32pm, dynamic, 1_6_vs_2_6, false, RIGHT, 3117, 1, 0, 0, 1
28,2018-08-23 04:50:35pm, dynamic, 1_6_vs_2_6, false, RIGHT, 3409, 0, 0, 0, 0
29,2018-08-23 04:50:38pm, dynamic, 1_6_vs_2_6, false, RIGHT, 3366, 0, 1, 1, 0
30,2018-08-23 04:50:42pm, dynamic, 1_6_vs_2_6, false, RIGHT, 3363, 0, 0, 0, 0
31,2018-08-23 04:50:45pm, dynamic, 1_6_vs_2_6, false, RIGHT, 3561, 0, 0, 0, 0
32,2018-08-23 04:50:49pm, dynamic, 1_6_vs_2_6, false, RIGHT, 3370, 0, 0, 0, 0
33,2018-08-23 04:50:52pm, dynamic, 1_6_vs_2_6, false, RIGHT, 3338, 0, 1, 1, 0
34,2018-08-23 04:50:55pm, dynamic, 1_6_vs_2_6, true, LEFT, 3289, 0, 0, 0, 0
35,2018-08-23 04:50:59pm, dynamic, 1_6_vs_2_6, true, LEFT, 3511, 0, 1, 0, 1
36,2018-08-23 04:51:02pm, dynamic, 1_6_vs_2_6, true, LEFT, 3108, 0, 0, 0, 0
37,2018-08-23 04:51:05pm, dynamic, 1_6_vs_2_6, true, LEFT, 3473, 1, 0, 1, 0
38,2018-08-23 04:51:09pm, dynamic, 1_6_vs_2_6, true, LEFT, 3620, 0, 0, 0, 0
39,2018-08-23 04:51:16pm, dynamic, 1_6_vs_2_6, true, LEFT, 7276, 0, 0, 0, 0
40,2018-08-23 04:51:26pm, dynamic, 1_6_vs_2_6, true, LEFT, 9904, 1, 0, 1, 0
41,2018-08-23 04:51:30pm, dynamic, 1_6_vs_2_6, true, LEFT, 3538, 0, 0, 0, 0
42,2018-08-23 04:51:33pm, dynamic, 1_6_vs_2_6, true, LEFT, 3349, 0, 0, 0, 0
43,2018-08-23 04:51:37pm, dynamic, 1_6_vs_2_6, true, LEFT, 3683, 0, 0, 0, 0
44,2018-08-23 04:51:40pm, dynamic, 1_6_vs_2_6, true, LEFT, 3146, 0, 0, 0, 0
45,2018-08-23 04:51:43pm, dynamic, 1_6_vs_2_6, true, LEFT, 3014, 0, 0, 0, 0
46,2018-08-23 04:51:46pm, dynamic, 1_6_vs_2_6, true, LEFT, 3360, 0, 0, 0, 0
47,2018-08-23 04:51:49pm, dynamic, 1_6_vs_2_6, true, LEFT, 2998, 0, 0, 0, 0
48,2018-08-23 04:51:53pm, dynamic, 1_6_vs_2_6, true, LEFT, 3442, 1, 0, 1, 0
49,2018-08-23 04:51:56pm, dynamic, 1_6_vs_2_6, true, LEFT, 3435, 0, 0, 0, 0
50,2018-08-23 04:52:00pm, dynamic, 1_6_vs_2_6, true, LEFT, 3445, 0, 0, 0, 0
51,2018-08-23 04:52:03pm, dynamic, 1_6_vs_2_6, true, LEFT, 3209, 0, 0, 0, 0
52,2018-08-23 04:52:06pm, dynamic, 1_6_vs_2_6, true, LEFT, 3143, 1, 0, 1, 0
53,2018-08-23 04:52:09pm, dynamic, 1_6_vs_2_6, true, LEFT, 3256, 0, 0, 0, 0
54,2018-08-23 04:52:12pm, dynamic, 1_6_vs_2_6, true, LEFT, 3214, 0, 0, 0, 0
55,2018-08-23 04:52:16pm, dynamic, 1_6_vs_2_6, true, LEFT, 3243, 0, 0, 0, 0
56,2018-08-23 04:52:19pm, dynamic, 1_6_vs_2_6, true, LEFT, 3174, 0, 0, 0, 0
57,2018-08-23 04:52:22pm, dynamic, 1_6_vs_2_6, true, LEFT, 3381, 1, 0, 1, 0
58,2018-08-23 04:52:26pm, dynamic, 1_6_vs_2_6, true, LEFT, 3337, 0, 0, 0, 0
59,2018-08-23 04:52:29pm, dynamic, 1_6_vs_2_6, true, LEFT, 2950, 0, 1, 0, 1
60,2018-08-23 04:52:31pm, dynamic, 1_6_vs_2_6, true, LEFT, 2946, 0, 0, 0, 0
61,2018-08-23 04:52:34pm, dynamic, 1_6_vs_2_6, true, LEFT, 3019, 0, 0, 0, 0
62,2018-08-23 04:52:38pm, dynamic, 1_6_vs_2_6, true, LEFT, 3840, 0, 0, 0, 0
63,2018-08-23 04:52:41pm, dynamic, 1_6_vs_2_6, true, LEFT, 3026, 0, 1, 0, 1
64,2018-08-23 04:52:45pm, dynamic, 1_6_vs_2_6, true, LEFT, 3127, 1, 0, 1, 0
65,2018-08-23 04:52:49pm, dynamic, 1_6_vs_2_6, true, LEFT, 4027, 0, 0, 0, 0
66,2018-08-23 04:52:52pm, dynamic, 1_6_vs_2_6, true, LEFT, 3060, 0, 1, 0, 1
67,2018-08-23 04:52:55pm, dynamic, 1_6_vs_2_6, true, LEFT, 3295, 0, 0, 0, 0
68,2018-08-23 04:52:58pm, dynamic, 1_6_vs_2_6, true, LEFT, 3501, 1, 0, 1, 0
69,2018-08-23 04:53:02pm, dynamic, 1_6_vs_2_6, true, LEFT, 3342, 0, 0, 0, 0
70,2018-08-23 04:53:05pm, dynamic, 1_6_vs_2_6, false, RIGHT, 3172, 0, 0, 0, 0
71,2018-08-23 04:53:08pm, dynamic, 1_6_vs_2_6, true, LEFT, 3093, 0, 0, 0, 0
72,2018-08-23 04:53:11pm, dynamic, 1_6_vs_2_6, true, LEFT, 3069, 0, 1, 0, 1
73,2018-08-23 04:53:14pm, dynamic, 1_6_vs_2_6, true, LEFT, 2972, 0, 0, 0, 0
74,2018-08-23 04:53:17pm, dynamic, 1_6_vs_2_6, true, LEFT, 3035, 0, 0, 0, 0
75,2018-08-23 04:53:20pm, dynamic, 1_6_vs_2_6, true, LEFT, 3350, 1, 0, 1, 0
76,2018-08-23 04:53:24pm, dynamic, 1_6_vs_2_6, true, LEFT, 3240, 1, 0, 1, 0
77,2018-08-23 04:53:27pm, dynamic, 1_6_vs_2_6, true, LEFT, 3015, 0, 1, 0, 1
78,2018-08-23 04:53:30pm, dynamic, 1_6_vs_2_6, true, LEFT, 3282, 1, 0, 1, 0
79,2018-08-23 04:53:33pm, dynamic, 1_6_vs_2_6, true, LEFT, 3303, 1, 0, 1, 0
80,2018-08-23 04:53:36pm, dynamic, 1_6_vs_2_6, true, LEFT, 3006, 0, 0, 0, 0
81,2018-08-23 04:53:40pm, dynamic, 1_6_vs_2_6, true, LEFT, 3281, 1, 0, 1, 0
82,2018-08-23 04:53:43pm, dynamic, 1_6_vs_2_6, true, LEFT, 3173, 0, 1, 0, 1
83,2018-08-23 04:53:46pm, dynamic, 1_6_vs_2_6, true, LEFT, 3052, 0, 1, 0, 1
84,2018-08-23 04:53:49pm, dynamic, 1_6_vs_2_6, true, LEFT, 3146, 0, 0, 0, 0
85,2018-08-23 04:53:52pm, dynamic, 1_6_vs_2_6, true, LEFT, 3320, 0, 0, 0, 0
86,2018-08-23 04:53:55pm, dynamic, 1_6_vs_2_6, true, LEFT, 3120, 0, 1, 0, 1
87,2018-08-23 04:53:58pm, dynamic, 1_6_vs_2_6, true, LEFT, 3083, 0, 0, 0, 0
88,2018-08-23 04:54:02pm, dynamic, 1_6_vs_2_6, true, LEFT, 3220, 0, 1, 0, 1
89,2018-08-23 04:54:05pm, dynamic, 1_6_vs_2_6, true, LEFT, 2974, 0, 1, 0, 1
90,2018-08-23 04:54:08pm, dynamic, 1_6_vs_2_6, true, LEFT, 3033, 0, 1, 0, 1
91,2018-08-23 04:54:11pm, dynamic, 1_6_vs_2_6, true, LEFT, 2988, 0, 1, 0, 1
92,2018-08-23 04:54:14pm, dynamic, 1_6_vs_2_6, true, LEFT, 3335, 0, 1, 0, 1
93,2018-08-23 04:54:18pm, dynamic, 1_6_vs_2_6, true, LEFT, 3678, 0, 1, 0, 1
94,2018-08-23 04:54:21pm, dynamic, 1_6_vs_2_6, true, LEFT, 2942, 0, 1, 0, 1
95,2018-08-23 04:54:23pm, dynamic, 1_6_vs_2_6, true, LEFT, 2920, 0, 1, 0, 1
96,2018-08-23 04:54:28pm, dynamic, 1_6_vs_2_6, true, LEFT, 4099, 0, 1, 0, 1
97,2018-08-23 04:54:30pm, dynamic, 1_6_vs_2_6, true, LEFT, 2913, 0, 1, 0, 1
98,2018-08-23 04:54:34pm, dynamic, 1_6_vs_2_6, true, LEFT, 3175, 0, 1, 0, 1
99,2018-08-23 04:54:37pm, dynamic, 1_6_vs_2_6, true, LEFT, 2878, 0, 1, 0, 1
