[{"RT":3838,"time": "2018-08-23 04:47:07pm", "schedule_type": "dynamic", "schedule_name": "1_6_vs_2_6", "is_biased_choice":false,"side_choice": "LEFT", "trial_number":0,"observed_reward":0,"unobserved_reward":0},{"RT":3409,"time": "2018-08-23 04:47:10pm", "schedule_type": "dynamic", "schedule_name": "1_6_vs_2_6", "is_biased_choice":true,"side_choice": "RIGHT", "trial_number":1,"observed_reward":0,"unobserved_reward":0},{"RT":3150,"time": "2018-08-23 04:47:13pm", "schedule_type": "dynamic", "schedule_name": "1_6_vs_2_6", "is_biased_choice":false,"side_choice": "LEFT", "trial_number":2,"observed_reward":0,"unobserved_reward":1},{"RT":2746,"time": "2018-08-23 04:47:16pm", "schedule_type": "dynamic", "schedule_name": "1_6_vs_2_6", "is_biased_choice":false,"side_choice": "LEFT", "trial_number":3,"observed_reward":0,"unobserved_reward":1},{"RT":2661,"time": "2018-08-23 04:47:19pm", "schedule_type": "dynamic", "schedule_name": "1_6_vs_2_6", "is_biased_choice":false,"side_choice": "LEFT", "trial_number":4,"observed_reward":0,"unobserved_reward":1},{"RT":2661,"time": "2018-08-23 04:47:21pm", "schedule_type": "dynamic", "schedule_name": "1_6_vs_2_6", "is_biased_choice":false,"side_choice": "LEFT", "trial_number":5,"observed_reward":0,"unobserved_reward":1},{"RT":2666,"time": "2018-08-23 04:47:24pm", "schedule_type": "dynamic", "schedule_name": "1_6_vs_2_6", "is_biased_choice":false,"side_choice": "LEFT", "trial_number":6,"observed_reward":0,"unobserved_reward":0},{"RT":2816,"time": "2018-08-23 04:47:27pm", "schedule_type": "dynamic", "schedule_name": "1_6_vs_2_6", "is_biased_choice":true,"side_choice": "RIGHT", "trial_number":7,"observed_reward":1,"unobserved_reward":0},{"RT":2916,"time": "2018-08-23 04:47:30pm", "schedule_type": "dynamic", "schedule_name": "1_6_vs_2_6", "is_biased_choice":true,"side_choice": "RIGHT", "trial_number":8,"observed_reward":0,"unobserved_reward":1},{"RT":2815,"time": "2018-08-23 04:47:33pm", "schedule_type": "dynamic", "schedule_name": "1_6_vs_2_6", "is_biased_choice":true,"side_choice": "RIGHT", "trial_number":9,"observed_reward":0,"unobserved_reward":0},{"RT":2920,"time": "2018-08-23 04:47:36pm", "schedule_type": "dynamic", "schedule_name": "1_6_vs_2_6", "is_biased_choice":true,"side_choice": "RIGHT", "trial_number":10,"observed_reward":0,"unobserved_reward":0},{"RT":2627,"time": "2018-08-23 04:47:38pm", "schedule_type": "dynamic", "schedule_name": "1_6_vs_2_6", "is_biased_choice":false,"side_choice": "LEFT", "trial_number":11,"observed_reward":0,"unobserved_reward":0},{"RT":2603,"time": "2018-08-23 04:47:41pm", "schedule_type": "dynamic", "schedule_name": "1_6_vs_2_6", "is_biased_choice":true,"side_choice": "RIGHT", "trial_number":12,"observed_reward":0,"unobserved_reward":0},{"RT":2592,"time": "2018-08-23 04:47:43pm", "schedule_type": "dynamic", "schedule_name": "1_6_vs_2_6", "is_biased_choice":false,"side_choice": "LEFT", "trial_number":13,"observed_reward":0,"unobserved_reward":0},{"RT":3536,"time": "2018-08-23 04:47:47pm", "schedule_type": "dynamic", "schedule_name": "1_6_vs_2_6", "is_biased_choice":true,"side_choice": "RIGHT", "trial_number":14,"observed_reward":0,"unobserved_reward":0},{"RT":3019,"time": "2018-08-23 04:47:50pm", "schedule_type": "dynamic", "schedule_name": "1_6_vs_2_6", "is_biased_choice":true,"side_choice": "RIGHT", "trial_number":15,"observed_reward":0,"unobserved_reward":0},{"RT":3028,"time": "2018-08-23 04:47:53pm", "schedule_type": "dynamic", "schedule_name": "1_6_vs_2_6", "is_biased_choice":false,"side_choice": "LEFT", "trial_number":16,"observed_reward":1,"unobserved_reward":1},{"RT":2995,"time": "2018-08-23 04:47:56pm", "schedule_type": "dynamic", "schedule_name": "1_6_vs_2_6", "is_biased_choice":false,"side_choice": "LEFT", "trial_number":17,"observed_reward":0,"unobserved_reward":0},{"RT":2615,"time": "2018-08-23 04:47:59pm", "schedule_type": "dynamic", "schedule_name": "1_6_vs_2_6", "is_biased_choice":true,"side_choice": "RIGHT", "trial_number":18,"observed_reward":1,"unobserved_reward":0},{"RT":3352,"time": "2018-08-23 04:48:02pm", "schedule_type": "dynamic", "schedule_name": "1_6_vs_2_6", "is_biased_choice":false,"side_choice": "LEFT", "trial_number":19,"observed_reward":0,"unobserved_reward":0},{"RT":2625,"time": "2018-08-23 04:48:05pm", "schedule_type": "dynamic", "schedule_name": "1_6_vs_2_6", "is_biased_choice":true,"side_choice": "RIGHT", "trial_number":20,"observed_reward":0,"unobserved_reward":0},{"RT":2603,"time": "2018-08-23 04:48:07pm", "schedule_type": "dynamic", "schedule_name": "1_6_vs_2_6", "is_biased_choice":false,"side_choice": "LEFT", "trial_number":21,"observed_reward":0,"unobserved_reward":0},{"RT":2522,"time": "2018-08-23 04:48:10pm", "schedule_type": "dynamic", "schedule_name": "1_6_vs_2_6", "is_biased_choice":true,"side_choice": "RIGHT", "trial_number":22,"observed_reward":0,"unobserved_reward":0},{"RT":2587,"time": "2018-08-23 04:48:12pm", "schedule_type": "dynamic", "schedule_name": "1_6_vs_2_6", "is_biased_choice":true,"side_choice": "RIGHT", "trial_number":23,"observed_reward":1,"unobserved_reward":0},{"RT":2575,"time": "2018-08-23 04:48:15pm", "schedule_type": "dynamic", "schedule_name": "1_6_vs_2_6", "is_biased_choice":true,"side_choice": "RIGHT", "trial_number":24,"observed_reward":0,"unobserved_reward":0},{"RT":2546,"time": "2018-08-23 04:48:17pm", "schedule_type": "dynamic", "schedule_name": "1_6_vs_2_6", "is_biased_choice":false,"side_choice": "LEFT", "trial_number":25,"observed_reward":0,"unobserved_reward":0},{"RT":3011,"time": "2018-08-23 04:48:20pm", "schedule_type": "dynamic", "schedule_name": "1_6_vs_2_6", "is_biased_choice":true,"side_choice": "RIGHT", "trial_number":26,"observed_reward":0,"unobserved_reward":1},{"RT":3208,"time": "2018-08-23 04:48:24pm", "schedule_type": "dynamic", "schedule_name": "1_6_vs_2_6", "is_biased_choice":false,"side_choice": "LEFT", "trial_number":27,"observed_reward":0,"unobserved_reward":1},{"RT":2615,"time": "2018-08-23 04:48:26pm", "schedule_type": "dynamic", "schedule_name": "1_6_vs_2_6", "is_biased_choice":true,"side_choice": "RIGHT", "trial_number":28,"observed_reward":1,"unobserved_reward":0},{"RT":2632,"time": "2018-08-23 04:48:29pm", "schedule_type": "dynamic", "schedule_name": "1_6_vs_2_6", "is_biased_choice":true,"side_choice": "RIGHT", "trial_number":29,"observed_reward":0,"unobserved_reward":1},{"RT":2701,"time": "2018-08-23 04:48:32pm", "schedule_type": "dynamic", "schedule_name": "1_6_vs_2_6", "is_biased_choice":false,"side_choice": "LEFT", "trial_number":30,"observed_reward":0,"unobserved_reward":1},{"RT":2869,"time": "2018-08-23 04:48:34pm", "schedule_type": "dynamic", "schedule_name": "1_6_vs_2_6", "is_biased_choice":true,"side_choice": "RIGHT", "trial_number":31,"observed_reward":0,"unobserved_reward":0},{"RT":2500,"time": "2018-08-23 04:48:37pm", "schedule_type": "dynamic", "schedule_name": "1_6_vs_2_6", "is_biased_choice":true,"side_choice": "RIGHT", "trial_number":32,"observed_reward":0,"unobserved_reward":0},{"RT":2533,"time": "2018-08-23 04:48:39pm", "schedule_type": "dynamic", "schedule_name": "1_6_vs_2_6", "is_biased_choice":false,"side_choice": "LEFT", "trial_number":33,"observed_reward":0,"unobserved_reward":1},{"RT":2557,"time": "2018-08-23 04:48:42pm", "schedule_type": "dynamic", "schedule_name": "1_6_vs_2_6", "is_biased_choice":true,"side_choice": "RIGHT", "trial_number":34,"observed_reward":0,"unobserved_reward":0},{"RT":2490,"time": "2018-08-23 04:48:44pm", "schedule_type": "dynamic", "schedule_name": "1_6_vs_2_6", "is_biased_choice":false,"side_choice": "LEFT", "trial_number":35,"observed_reward":0,"unobserved_reward":1},{"RT":2487,"time": "2018-08-23 04:48:47pm", "schedule_type": "dynamic", "schedule_name": "1_6_vs_2_6", "is_biased_choice":true,"side_choice": "RIGHT", "trial_number":36,"observed_reward":1,"unobserved_reward":0},{"RT":2482,"time": "2018-08-23 04:48:49pm", "schedule_type": "dynamic", "schedule_name": "1_6_vs_2_6", "is_biased_choice":true,"side_choice": "RIGHT", "trial_number":37,"observed_reward":1,"unobserved_reward":1},{"RT":2471,"time": "2018-08-23 04:48:52pm", "schedule_type": "dynamic", "schedule_name": "1_6_vs_2_6", "is_biased_choice":true,"side_choice": "RIGHT", "trial_number":38,"observed_reward":0,"unobserved_reward":0},{"RT":2627,"time": "2018-08-23 04:48:55pm", "schedule_type": "dynamic", "schedule_name": "1_6_vs_2_6", "is_biased_choice":false,"side_choice": "LEFT", "trial_number":39,"observed_reward":0,"unobserved_reward":0},{"RT":2477,"time": "2018-08-23 04:48:57pm", "schedule_type": "dynamic", "schedule_name": "1_6_vs_2_6", "is_biased_choice":true,"side_choice": "RIGHT", "trial_number":40,"observed_reward":1,"unobserved_reward":0},{"RT":2609,"time": "2018-08-23 04:49:00pm", "schedule_type": "dynamic", "schedule_name": "1_6_vs_2_6", "is_biased_choice":true,"side_choice": "RIGHT", "trial_number":41,"observed_reward":0,"unobserved_reward":0},{"RT":2534,"time": "2018-08-23 04:49:02pm", "schedule_type": "dynamic", "schedule_name": "1_6_vs_2_6", "is_biased_choice":false,"side_choice": "LEFT", "trial_number":42,"observed_reward":0,"unobserved_reward":1},{"RT":2956,"time": "2018-08-23 04:49:05pm", "schedule_type": "dynamic", "schedule_name": "1_6_vs_2_6", "is_biased_choice":true,"side_choice": "RIGHT", "trial_number":43,"observed_reward":0,"unobserved_reward":0},{"RT":2477,"time": "2018-08-23 04:49:08pm", "schedule_type": "dynamic", "schedule_name": "1_6_vs_2_6", "is_biased_choice":false,"side_choice": "LEFT", "trial_number":44,"observed_reward":0,"unobserved_reward":1},{"RT":2467,"time": "2018-08-23 04:49:10pm", "schedule_type": "dynamic", "schedule_name": "1_6_vs_2_6", "is_biased_choice":true,"side_choice": "RIGHT", "trial_number":45,"observed_reward":0,"unobserved_reward":0},{"RT":2419,"time": "2018-08-23 04:49:13pm", "schedule_type": "dynamic", "schedule_name": "1_6_vs_2_6", "is_biased_choice":true,"side_choice": "RIGHT", "trial_number":46,"observed_reward":0,"unobserved_reward":0},{"RT":2496,"time": "2018-08-23 04:49:15pm", "schedule_type": "dynamic", "schedule_name": "1_6_vs_2_6", "is_biased_choice":true,"side_choice": "RIGHT", "trial_number":47,"observed_reward":0,"unobserved_reward":0},{"RT":2532,"time": "2018-08-23 04:49:18pm", "schedule_type": "dynamic", "schedule_name": "1_6_vs_2_6", "is_biased_choice":false,"side_choice": "LEFT", "trial_number":48,"observed_reward":1,"unobserved_reward":0},{"RT":2452,"time": "2018-08-23 04:49:20pm", "schedule_type": "dynamic", "schedule_name": "1_6_vs_2_6", "is_biased_choice":true,"side_choice": "RIGHT", "trial_number":49,"observed_reward":0,"unobserved_reward":0},{"RT":2444,"time": "2018-08-23 04:49:22pm", "schedule_type": "dynamic", "schedule_name": "1_6_vs_2_6", "is_biased_choice":false,"side_choice": "LEFT", "trial_number":50,"observed_reward":0,"unobserved_reward":0},{"RT":2476,"time": "2018-08-23 04:49:25pm", "schedule_type": "dynamic", "schedule_name": "1_6_vs_2_6", "is_biased_choice":true,"side_choice": "RIGHT", "trial_number":51,"observed_reward":0,"unobserved_reward":0},{"RT":2442,"time": "2018-08-23 04:49:27pm", "schedule_type": "dynamic", "schedule_name": "1_6_vs_2_6", "is_biased_choice":false,"side_choice": "LEFT", "trial_number":52,"observed_reward":0,"unobserved_reward":0},{"RT":2523,"time": "2018-08-23 04:49:30pm", "schedule_type": "dynamic", "schedule_name": "1_6_vs_2_6", "is_biased_choice":true,"side_choice": "RIGHT", "trial_number":53,"observed_reward":0,"unobserved_reward":0},{"RT":2453,"time": "2018-08-23 04:49:32pm", "schedule_type": "dynamic", "schedule_name": "1_6_vs_2_6", "is_biased_choice":false,"side_choice": "LEFT", "trial_number":54,"observed_reward":0,"unobserved_reward":0},{"RT":2517,"time": "2018-08-23 04:49:35pm", "schedule_type": "dynamic", "schedule_name": "1_6_vs_2_6", "is_biased_choice":true,"side_choice": "RIGHT", "trial_number":55,"observed_reward":1,"unobserved_reward":0},{"RT":2528,"time": "2018-08-23 04:49:37pm", "schedule_type": "dynamic", "schedule_name": "1_6_vs_2_6", "is_biased_choice":true,"side_choice": "RIGHT", "trial_number":56,"observed_reward":0,"unobserved_reward":0},{"RT":2477,"time": "2018-08-23 04:49:40pm", "schedule_type": "dynamic", "schedule_name": "1_6_vs_2_6", "is_biased_choice":false,"side_choice": "LEFT", "trial_number":57,"observed_reward":0,"unobserved_reward":0},{"RT":2511,"time": "2018-08-23 04:49:42pm", "schedule_type": "dynamic", "schedule_name": "1_6_vs_2_6", "is_biased_choice":true,"side_choice": "RIGHT", "trial_number":58,"observed_reward":0,"unobserved_reward":0},{"RT":2397,"time": "2018-08-23 04:49:45pm", "schedule_type": "dynamic", "schedule_name": "1_6_vs_2_6", "is_biased_choice":false,"side_choice": "LEFT", "trial_number":59,"observed_reward":0,"unobserved_reward":0},{"RT":2431,"time": "2018-08-23 04:49:47pm", "schedule_type": "dynamic", "schedule_name": "1_6_vs_2_6", "is_biased_choice":true,"side_choice": "RIGHT", "trial_number":60,"observed_reward":1,"unobserved_reward":0},{"RT":2499,"time": "2018-08-23 04:49:50pm", "schedule_type": "dynamic", "schedule_name": "1_6_vs_2_6", "is_biased_choice":true,"side_choice": "RIGHT", "trial_number":61,"observed_reward":0,"unobserved_reward":0},{"RT":2731,"time": "2018-08-23 04:49:52pm", "schedule_type": "dynamic", "schedule_name": "1_6_vs_2_6", "is_biased_choice":true,"side_choice": "RIGHT", "trial_number":62,"observed_reward":0,"unobserved_reward":1},{"RT":2678,"time": "2018-08-23 04:49:55pm", "schedule_type": "dynamic", "schedule_name": "1_6_vs_2_6", "is_biased_choice":false,"side_choice": "LEFT", "trial_number":63,"observed_reward":0,"unobserved_reward":0},{"RT":2724,"time": "2018-08-23 04:49:58pm", "schedule_type": "dynamic", "schedule_name": "1_6_vs_2_6", "is_biased_choice":true,"side_choice": "RIGHT", "trial_number":64,"observed_reward":1,"unobserved_reward":0},{"RT":2511,"time": "2018-08-23 04:50:00pm", "schedule_type": "dynamic", "schedule_name": "1_6_vs_2_6", "is_biased_choice":true,"side_choice": "RIGHT", "trial_number":65,"observed_reward":1,"unobserved_reward":0},{"RT":2522,"time": "2018-08-23 04:50:03pm", "schedule_type": "dynamic", "schedule_name": "1_6_vs_2_6", "is_biased_choice":true,"side_choice": "RIGHT", "trial_number":66,"observed_reward":0,"unobserved_reward":0},{"RT":2536,"time": "2018-08-23 04:50:05pm", "schedule_type": "dynamic", "schedule_name": "1_6_vs_2_6", "is_biased_choice":true,"side_choice": "RIGHT", "trial_number":67,"observed_reward":0,"unobserved_reward":0},{"RT":2961,"time": "2018-08-23 04:50:08pm", "schedule_type": "dynamic", "schedule_name": "1_6_vs_2_6", "is_biased_choice":true,"side_choice": "RIGHT", "trial_number":68,"observed_reward":1,"unobserved_reward":0},{"RT":2645,"time": "2018-08-23 04:50:11pm", "schedule_type": "dynamic", "schedule_name": "1_6_vs_2_6", "is_biased_choice":true,"side_choice": "RIGHT", "trial_number":69,"observed_reward":0,"unobserved_reward":0},{"RT":2518,"time": "2018-08-23 04:50:13pm", "schedule_type": "dynamic", "schedule_name": "1_6_vs_2_6", "is_biased_choice":true,"side_choice": "RIGHT", "trial_number":70,"observed_reward":0,"unobserved_reward":0},{"RT":2483,"time": "2018-08-23 04:50:16pm", "schedule_type": "dynamic", "schedule_name": "1_6_vs_2_6", "is_biased_choice":true,"side_choice": "RIGHT", "trial_number":71,"observed_reward":0,"unobserved_reward":0},{"RT":2979,"time": "2018-08-23 04:50:19pm", "schedule_type": "dynamic", "schedule_name": "1_6_vs_2_6", "is_biased_choice":false,"side_choice": "LEFT", "trial_number":72,"observed_reward":0,"unobserved_reward":0},{"RT":2464,"time": "2018-08-23 04:50:21pm", "schedule_type": "dynamic", "schedule_name": "1_6_vs_2_6", "is_biased_choice":true,"side_choice": "RIGHT", "trial_number":73,"observed_reward":0,"unobserved_reward":1},{"RT":2484,"time": "2018-08-23 04:50:24pm", "schedule_type": "dynamic", "schedule_name": "1_6_vs_2_6", "is_biased_choice":true,"side_choice": "RIGHT", "trial_number":74,"observed_reward":0,"unobserved_reward":0},{"RT":2418,"time": "2018-08-23 04:50:26pm", "schedule_type": "dynamic", "schedule_name": "1_6_vs_2_6", "is_biased_choice":true,"side_choice": "RIGHT", "trial_number":75,"observed_reward":1,"unobserved_reward":0},{"RT":2465,"time": "2018-08-23 04:50:29pm", "schedule_type": "dynamic", "schedule_name": "1_6_vs_2_6", "is_biased_choice":true,"side_choice": "RIGHT", "trial_number":76,"observed_reward":0,"unobserved_reward":1},{"RT":2564,"time": "2018-08-23 04:50:31pm", "schedule_type": "dynamic", "schedule_name": "1_6_vs_2_6", "is_biased_choice":false,"side_choice": "LEFT", "trial_number":77,"observed_reward":0,"unobserved_reward":0},{"RT":2575,"time": "2018-08-23 04:50:34pm", "schedule_type": "dynamic", "schedule_name": "1_6_vs_2_6", "is_biased_choice":true,"side_choice": "RIGHT", "trial_number":78,"observed_reward":0,"unobserved_reward":1},{"RT":3117,"time": "2018-08-23 04:50:37pm", "schedule_type": "dynamic", "schedule_name": "1_6_vs_2_6", "is_biased_choice":false,"side_choice": "LEFT", "trial_number":79,"observed_reward":1,"unobserved_reward":0},{"RT":3641,"time": "2018-08-23 04:50:41pm", "schedule_type": "dynamic", "schedule_name": "1_6_vs_2_6", "is_biased_choice":false,"side_choice": "LEFT", "trial_number":80,"observed_reward":0,"unobserved_reward":0},{"RT":2790,"time": "2018-08-23 04:50:43pm", "schedule_type": "dynamic", "schedule_name": "1_6_vs_2_6", "is_biased_choice":true,"side_choice": "RIGHT", "trial_number":81,"observed_reward":0,"unobserved_reward":0},{"RT":2645,"time": "2018-08-23 04:50:46pm", "schedule_type": "dynamic", "schedule_name": "1_6_vs_2_6", "is_biased_choice":false,"side_choice": "LEFT", "trial_number":82,"observed_reward":0,"unobserved_reward":0},{"RT":2946,"time": "2018-08-23 04:50:49pm", "schedule_type": "dynamic", "schedule_name": "1_6_vs_2_6", "is_biased_choice":true,"side_choice": "RIGHT", "trial_number":83,"observed_reward":1,"unobserved_reward":0},{"RT":2731,"time": "2018-08-23 04:50:52pm", "schedule_type": "dynamic", "schedule_name": "1_6_vs_2_6", "is_biased_choice":true,"side_choice": "RIGHT", "trial_number":84,"observed_reward":0,"unobserved_reward":0},{"RT":2685,"time": "2018-08-23 04:50:54pm", "schedule_type": "dynamic", "schedule_name": "1_6_vs_2_6", "is_biased_choice":false,"side_choice": "LEFT", "trial_number":85,"observed_reward":0,"unobserved_reward":0},{"RT":3205,"time": "2018-08-23 04:50:58pm", "schedule_type": "dynamic", "schedule_name": "1_6_vs_2_6", "is_biased_choice":true,"side_choice": "RIGHT", "trial_number":86,"observed_reward":0,"unobserved_reward":1},{"RT":2795,"time": "2018-08-23 04:51:00pm", "schedule_type": "dynamic", "schedule_name": "1_6_vs_2_6", "is_biased_choice":true,"side_choice": "RIGHT", "trial_number":87,"observed_reward":0,"unobserved_reward":1},{"RT":3337,"time": "2018-08-23 04:51:04pm", "schedule_type": "dynamic", "schedule_name": "1_6_vs_2_6", "is_biased_choice":false,"side_choice": "LEFT", "trial_number":88,"observed_reward":1,"unobserved_reward":0},{"RT":2640,"time": "2018-08-23 04:51:06pm", "schedule_type": "dynamic", "schedule_name": "1_6_vs_2_6", "is_biased_choice":true,"side_choice": "RIGHT", "trial_number":89,"observed_reward":0,"unobserved_reward":1},{"RT":3060,"time": "2018-08-23 04:51:10pm", "schedule_type": "dynamic", "schedule_name": "1_6_vs_2_6", "is_biased_choice":true,"side_choice": "RIGHT", "trial_number":90,"observed_reward":0,"unobserved_reward":1},{"RT":2552,"time": "2018-08-23 04:51:12pm", "schedule_type": "dynamic", "schedule_name": "1_6_vs_2_6", "is_biased_choice":true,"side_choice": "RIGHT", "trial_number":91,"observed_reward":0,"unobserved_reward":1},{"RT":2986,"time": "2018-08-23 04:51:15pm", "schedule_type": "dynamic", "schedule_name": "1_6_vs_2_6", "is_biased_choice":true,"side_choice": "RIGHT", "trial_number":92,"observed_reward":0,"unobserved_reward":1},{"RT":2531,"time": "2018-08-23 04:51:18pm", "schedule_type": "dynamic", "schedule_name": "1_6_vs_2_6", "is_biased_choice":false,"side_choice": "LEFT", "trial_number":93,"observed_reward":1,"unobserved_reward":0},{"RT":3877,"time": "2018-08-23 04:51:21pm", "schedule_type": "dynamic", "schedule_name": "1_6_vs_2_6", "is_biased_choice":true,"side_choice": "RIGHT", "trial_number":94,"observed_reward":0,"unobserved_reward":1},{"RT":2489,"time": "2018-08-23 04:51:24pm", "schedule_type": "dynamic", "schedule_name": "1_6_vs_2_6", "is_biased_choice":true,"side_choice": "RIGHT", "trial_number":95,"observed_reward":0,"unobserved_reward":1},{"RT":2467,"time": "2018-08-23 04:51:26pm", "schedule_type": "dynamic", "schedule_name": "1_6_vs_2_6", "is_biased_choice":true,"side_choice": "RIGHT", "trial_number":96,"observed_reward":0,"unobserved_reward":1},{"RT":2444,"time": "2018-08-23 04:51:29pm", "schedule_type": "dynamic", "schedule_name": "1_6_vs_2_6", "is_biased_choice":false,"side_choice": "LEFT", "trial_number":97,"observed_reward":1,"unobserved_reward":0},{"RT":2483,"time": "2018-08-23 04:51:31pm", "schedule_type": "dynamic", "schedule_name": "1_6_vs_2_6", "is_biased_choice":true,"side_choice": "RIGHT", "trial_number":98,"observed_reward":0,"unobserved_reward":1},{"RT":2427,"time": "2018-08-23 04:51:34pm", "schedule_type": "dynamic", "schedule_name": "1_6_vs_2_6", "is_biased_choice":false,"side_choice": "LEFT", "trial_number":99,"observed_reward":1,"unobserved_reward":0}]