[{"RT":1383,"time": "2018-08-15 05:54:37pm", "schedule_type": "STATIC", "schedule_name": "random_8", "is_biased_choice":false,"side_choice": "LEFT", "trial_number":0,"observed_reward":0,"unobserved_reward":0},{"RT":4249,"time": "2018-08-15 05:54:41pm", "schedule_type": "STATIC", "schedule_name": "random_8", "is_biased_choice":false,"side_choice": "LEFT", "trial_number":1,"observed_reward":0,"unobserved_reward":1},{"RT":2422,"time": "2018-08-15 05:54:44pm", "schedule_type": "STATIC", "schedule_name": "random_8", "is_biased_choice":false,"side_choice": "LEFT", "trial_number":2,"observed_reward":0,"unobserved_reward":0},{"RT":2393,"time": "2018-08-15 05:54:46pm", "schedule_type": "STATIC", "schedule_name": "random_8", "is_biased_choice":true,"side_choice": "RIGHT", "trial_number":3,"observed_reward":1,"unobserved_reward":0},{"RT":2936,"time": "2018-08-15 05:54:49pm", "schedule_type": "STATIC", "schedule_name": "random_8", "is_biased_choice":false,"side_choice": "LEFT", "trial_number":4,"observed_reward":1,"unobserved_reward":0},{"RT":3799,"time": "2018-08-15 05:54:53pm", "schedule_type": "STATIC", "schedule_name": "random_8", "is_biased_choice":false,"side_choice": "LEFT", "trial_number":5,"observed_reward":0,"unobserved_reward":0},{"RT":2512,"time": "2018-08-15 05:54:55pm", "schedule_type": "STATIC", "schedule_name": "random_8", "is_biased_choice":false,"side_choice": "LEFT", "trial_number":6,"observed_reward":0,"unobserved_reward":0},{"RT":2200,"time": "2018-08-15 05:54:58pm", "schedule_type": "STATIC", "schedule_name": "random_8", "is_biased_choice":true,"side_choice": "RIGHT", "trial_number":7,"observed_reward":1,"unobserved_reward":0},{"RT":2474,"time": "2018-08-15 05:55:00pm", "schedule_type": "STATIC", "schedule_name": "random_8", "is_biased_choice":true,"side_choice": "RIGHT", "trial_number":8,"observed_reward":0,"unobserved_reward":0},{"RT":2680,"time": "2018-08-15 05:55:03pm", "schedule_type": "STATIC", "schedule_name": "random_8", "is_biased_choice":true,"side_choice": "RIGHT", "trial_number":9,"observed_reward":0,"unobserved_reward":0},{"RT":28904,"time": "2018-08-15 05:55:32pm", "schedule_type": "STATIC", "schedule_name": "random_8", "is_biased_choice":true,"side_choice": "RIGHT", "trial_number":10,"observed_reward":0,"unobserved_reward":0},{"RT":2895,"time": "2018-08-15 05:55:34pm", "schedule_type": "STATIC", "schedule_name": "random_8", "is_biased_choice":true,"side_choice": "RIGHT", "trial_number":11,"observed_reward":0,"unobserved_reward":0},{"RT":2375,"time": "2018-08-15 05:55:37pm", "schedule_type": "STATIC", "schedule_name": "random_8", "is_biased_choice":false,"side_choice": "LEFT", "trial_number":12,"observed_reward":1,"unobserved_reward":0},{"RT":12480,"time": "2018-08-15 05:55:50pm", "schedule_type": "STATIC", "schedule_name": "random_8", "is_biased_choice":true,"side_choice": "RIGHT", "trial_number":13,"observed_reward":0,"unobserved_reward":1},{"RT":2607,"time": "2018-08-15 05:55:52pm", "schedule_type": "STATIC", "schedule_name": "random_8", "is_biased_choice":true,"side_choice": "RIGHT", "trial_number":14,"observed_reward":0,"unobserved_reward":0},{"RT":2713,"time": "2018-08-15 05:55:54pm", "schedule_type": "STATIC", "schedule_name": "random_8", "is_biased_choice":false,"side_choice": "LEFT", "trial_number":15,"observed_reward":1,"unobserved_reward":0},{"RT":2656,"time": "2018-08-15 05:55:58pm", "schedule_type": "STATIC", "schedule_name": "random_8", "is_biased_choice":false,"side_choice": "LEFT", "trial_number":16,"observed_reward":0,"unobserved_reward":1},{"RT":2288,"time": "2018-08-15 05:55:59pm", "schedule_type": "STATIC", "schedule_name": "random_8", "is_biased_choice":true,"side_choice": "RIGHT", "trial_number":17,"observed_reward":1,"unobserved_reward":1},{"RT":2210,"time": "2018-08-15 05:56:02pm", "schedule_type": "STATIC", "schedule_name": "random_8", "is_biased_choice":true,"side_choice": "RIGHT", "trial_number":18,"observed_reward":0,"unobserved_reward":0},{"RT":2304,"time": "2018-08-15 05:56:04pm", "schedule_type": "STATIC", "schedule_name": "random_8", "is_biased_choice":false,"side_choice": "LEFT", "trial_number":19,"observed_reward":0,"unobserved_reward":0},{"RT":2256,"time": "2018-08-15 05:56:06pm", "schedule_type": "STATIC", "schedule_name": "random_8", "is_biased_choice":false,"side_choice": "LEFT", "trial_number":20,"observed_reward":0,"unobserved_reward":1},{"RT":2200,"time": "2018-08-15 05:56:09pm", "schedule_type": "STATIC", "schedule_name": "random_8", "is_biased_choice":true,"side_choice": "RIGHT", "trial_number":21,"observed_reward":0,"unobserved_reward":1},{"RT":2263,"time": "2018-08-15 05:56:11pm", "schedule_type": "STATIC", "schedule_name": "random_8", "is_biased_choice":true,"side_choice": "RIGHT", "trial_number":22,"observed_reward":0,"unobserved_reward":0},{"RT":2249,"time": "2018-08-15 05:56:13pm", "schedule_type": "STATIC", "schedule_name": "random_8", "is_biased_choice":true,"side_choice": "RIGHT", "trial_number":23,"observed_reward":0,"unobserved_reward":1},{"RT":2496,"time": "2018-08-15 05:56:15pm", "schedule_type": "STATIC", "schedule_name": "random_8", "is_biased_choice":false,"side_choice": "LEFT", "trial_number":24,"observed_reward":0,"unobserved_reward":1},{"RT":2679,"time": "2018-08-15 05:56:18pm", "schedule_type": "STATIC", "schedule_name": "random_8", "is_biased_choice":false,"side_choice": "LEFT", "trial_number":25,"observed_reward":0,"unobserved_reward":0},{"RT":2536,"time": "2018-08-15 05:56:21pm", "schedule_type": "STATIC", "schedule_name": "random_8", "is_biased_choice":true,"side_choice": "RIGHT", "trial_number":26,"observed_reward":0,"unobserved_reward":1},{"RT":2280,"time": "2018-08-15 05:56:23pm", "schedule_type": "STATIC", "schedule_name": "random_8", "is_biased_choice":true,"side_choice": "RIGHT", "trial_number":27,"observed_reward":0,"unobserved_reward":1},{"RT":2336,"time": "2018-08-15 05:56:25pm", "schedule_type": "STATIC", "schedule_name": "random_8", "is_biased_choice":false,"side_choice": "LEFT", "trial_number":28,"observed_reward":0,"unobserved_reward":0},{"RT":2279,"time": "2018-08-15 05:56:28pm", "schedule_type": "STATIC", "schedule_name": "random_8", "is_biased_choice":true,"side_choice": "RIGHT", "trial_number":29,"observed_reward":0,"unobserved_reward":0},{"RT":2401,"time": "2018-08-15 05:56:30pm", "schedule_type": "STATIC", "schedule_name": "random_8", "is_biased_choice":false,"side_choice": "LEFT", "trial_number":30,"observed_reward":0,"unobserved_reward":0},{"RT":2400,"time": "2018-08-15 05:56:32pm", "schedule_type": "STATIC", "schedule_name": "random_8", "is_biased_choice":false,"side_choice": "LEFT", "trial_number":31,"observed_reward":0,"unobserved_reward":1},{"RT":2559,"time": "2018-08-15 05:56:35pm", "schedule_type": "STATIC", "schedule_name": "random_8", "is_biased_choice":true,"side_choice": "RIGHT", "trial_number":32,"observed_reward":0,"unobserved_reward":1},{"RT":2312,"time": "2018-08-15 05:56:38pm", "schedule_type": "STATIC", "schedule_name": "random_8", "is_biased_choice":true,"side_choice": "RIGHT", "trial_number":33,"observed_reward":0,"unobserved_reward":0},{"RT":2456,"time": "2018-08-15 05:56:40pm", "schedule_type": "STATIC", "schedule_name": "random_8", "is_biased_choice":true,"side_choice": "RIGHT", "trial_number":34,"observed_reward":0,"unobserved_reward":0},{"RT":2305,"time": "2018-08-15 05:56:42pm", "schedule_type": "STATIC", "schedule_name": "random_8", "is_biased_choice":true,"side_choice": "RIGHT", "trial_number":35,"observed_reward":0,"unobserved_reward":1},{"RT":2527,"time": "2018-08-15 05:56:44pm", "schedule_type": "STATIC", "schedule_name": "random_8", "is_biased_choice":true,"side_choice": "RIGHT", "trial_number":36,"observed_reward":0,"unobserved_reward":0},{"RT":2460,"time": "2018-08-15 05:56:47pm", "schedule_type": "STATIC", "schedule_name": "random_8", "is_biased_choice":false,"side_choice": "LEFT", "trial_number":37,"observed_reward":1,"unobserved_reward":1},{"RT":2292,"time": "2018-08-15 05:56:49pm", "schedule_type": "STATIC", "schedule_name": "random_8", "is_biased_choice":false,"side_choice": "LEFT", "trial_number":38,"observed_reward":1,"unobserved_reward":0},{"RT":2279,"time": "2018-08-15 05:56:52pm", "schedule_type": "STATIC", "schedule_name": "random_8", "is_biased_choice":false,"side_choice": "LEFT", "trial_number":39,"observed_reward":0,"unobserved_reward":0},{"RT":2401,"time": "2018-08-15 05:56:54pm", "schedule_type": "STATIC", "schedule_name": "random_8", "is_biased_choice":true,"side_choice": "RIGHT", "trial_number":40,"observed_reward":0,"unobserved_reward":0},{"RT":2320,"time": "2018-08-15 05:56:56pm", "schedule_type": "STATIC", "schedule_name": "random_8", "is_biased_choice":false,"side_choice": "LEFT", "trial_number":41,"observed_reward":0,"unobserved_reward":0},{"RT":2376,"time": "2018-08-15 05:56:59pm", "schedule_type": "STATIC", "schedule_name": "random_8", "is_biased_choice":false,"side_choice": "LEFT", "trial_number":42,"observed_reward":1,"unobserved_reward":0},{"RT":2299,"time": "2018-08-15 05:57:01pm", "schedule_type": "STATIC", "schedule_name": "random_8", "is_biased_choice":true,"side_choice": "RIGHT", "trial_number":43,"observed_reward":0,"unobserved_reward":0},{"RT":4887,"time": "2018-08-15 05:57:06pm", "schedule_type": "STATIC", "schedule_name": "random_8", "is_biased_choice":false,"side_choice": "LEFT", "trial_number":44,"observed_reward":0,"unobserved_reward":1},{"RT":2608,"time": "2018-08-15 05:57:09pm", "schedule_type": "STATIC", "schedule_name": "random_8", "is_biased_choice":true,"side_choice": "RIGHT", "trial_number":45,"observed_reward":0,"unobserved_reward":0},{"RT":2448,"time": "2018-08-15 05:57:11pm", "schedule_type": "STATIC", "schedule_name": "random_8", "is_biased_choice":false,"side_choice": "LEFT", "trial_number":46,"observed_reward":0,"unobserved_reward":0},{"RT":2352,"time": "2018-08-15 05:57:14pm", "schedule_type": "STATIC", "schedule_name": "random_8", "is_biased_choice":true,"side_choice": "RIGHT", "trial_number":47,"observed_reward":0,"unobserved_reward":0},{"RT":2488,"time": "2018-08-15 05:57:16pm", "schedule_type": "STATIC", "schedule_name": "random_8", "is_biased_choice":false,"side_choice": "LEFT", "trial_number":48,"observed_reward":1,"unobserved_reward":1},{"RT":2255,"time": "2018-08-15 05:57:18pm", "schedule_type": "STATIC", "schedule_name": "random_8", "is_biased_choice":false,"side_choice": "LEFT", "trial_number":49,"observed_reward":0,"unobserved_reward":0},{"RT":2400,"time": "2018-08-15 05:57:20pm", "schedule_type": "STATIC", "schedule_name": "random_8", "is_biased_choice":true,"side_choice": "RIGHT", "trial_number":50,"observed_reward":0,"unobserved_reward":0},{"RT":2288,"time": "2018-08-15 05:57:23pm", "schedule_type": "STATIC", "schedule_name": "random_8", "is_biased_choice":false,"side_choice": "LEFT", "trial_number":51,"observed_reward":0,"unobserved_reward":1},{"RT":2551,"time": "2018-08-15 05:57:25pm", "schedule_type": "STATIC", "schedule_name": "random_8", "is_biased_choice":true,"side_choice": "RIGHT", "trial_number":52,"observed_reward":0,"unobserved_reward":0},{"RT":2496,"time": "2018-08-15 05:57:28pm", "schedule_type": "STATIC", "schedule_name": "random_8", "is_biased_choice":false,"side_choice": "LEFT", "trial_number":53,"observed_reward":1,"unobserved_reward":1},{"RT":2217,"time": "2018-08-15 05:57:30pm", "schedule_type": "STATIC", "schedule_name": "random_8", "is_biased_choice":true,"side_choice": "RIGHT", "trial_number":54,"observed_reward":0,"unobserved_reward":0},{"RT":2768,"time": "2018-08-15 05:57:33pm", "schedule_type": "STATIC", "schedule_name": "random_8", "is_biased_choice":false,"side_choice": "LEFT", "trial_number":55,"observed_reward":0,"unobserved_reward":1},{"RT":2431,"time": "2018-08-15 05:57:35pm", "schedule_type": "STATIC", "schedule_name": "random_8", "is_biased_choice":true,"side_choice": "RIGHT", "trial_number":56,"observed_reward":0,"unobserved_reward":0},{"RT":2321,"time": "2018-08-15 05:57:37pm", "schedule_type": "STATIC", "schedule_name": "random_8", "is_biased_choice":false,"side_choice": "LEFT", "trial_number":57,"observed_reward":1,"unobserved_reward":0},{"RT":2584,"time": "2018-08-15 05:57:40pm", "schedule_type": "STATIC", "schedule_name": "random_8", "is_biased_choice":false,"side_choice": "LEFT", "trial_number":58,"observed_reward":0,"unobserved_reward":0},{"RT":2375,"time": "2018-08-15 05:57:43pm", "schedule_type": "STATIC", "schedule_name": "random_8", "is_biased_choice":true,"side_choice": "RIGHT", "trial_number":59,"observed_reward":0,"unobserved_reward":0},{"RT":2424,"time": "2018-08-15 05:57:45pm", "schedule_type": "STATIC", "schedule_name": "random_8", "is_biased_choice":false,"side_choice": "LEFT", "trial_number":60,"observed_reward":0,"unobserved_reward":0},{"RT":3088,"time": "2018-08-15 05:57:48pm", "schedule_type": "STATIC", "schedule_name": "random_8", "is_biased_choice":true,"side_choice": "RIGHT", "trial_number":61,"observed_reward":1,"unobserved_reward":1},{"RT":3375,"time": "2018-08-15 05:57:51pm", "schedule_type": "STATIC", "schedule_name": "random_8", "is_biased_choice":false,"side_choice": "LEFT", "trial_number":62,"observed_reward":0,"unobserved_reward":1},{"RT":2816,"time": "2018-08-15 05:57:54pm", "schedule_type": "STATIC", "schedule_name": "random_8", "is_biased_choice":true,"side_choice": "RIGHT", "trial_number":63,"observed_reward":0,"unobserved_reward":0},{"RT":2616,"time": "2018-08-15 05:57:57pm", "schedule_type": "STATIC", "schedule_name": "random_8", "is_biased_choice":false,"side_choice": "LEFT", "trial_number":64,"observed_reward":0,"unobserved_reward":0},{"RT":2305,"time": "2018-08-15 05:57:59pm", "schedule_type": "STATIC", "schedule_name": "random_8", "is_biased_choice":true,"side_choice": "RIGHT", "trial_number":65,"observed_reward":1,"unobserved_reward":0},{"RT":2825,"time": "2018-08-15 05:58:02pm", "schedule_type": "STATIC", "schedule_name": "random_8", "is_biased_choice":false,"side_choice": "LEFT", "trial_number":66,"observed_reward":0,"unobserved_reward":1},{"RT":2330,"time": "2018-08-15 05:58:04pm", "schedule_type": "STATIC", "schedule_name": "random_8", "is_biased_choice":true,"side_choice": "RIGHT", "trial_number":67,"observed_reward":0,"unobserved_reward":1},{"RT":2558,"time": "2018-08-15 05:58:07pm", "schedule_type": "STATIC", "schedule_name": "random_8", "is_biased_choice":false,"side_choice": "LEFT", "trial_number":68,"observed_reward":0,"unobserved_reward":0},{"RT":2680,"time": "2018-08-15 05:58:09pm", "schedule_type": "STATIC", "schedule_name": "random_8", "is_biased_choice":true,"side_choice": "RIGHT", "trial_number":69,"observed_reward":0,"unobserved_reward":1},{"RT":2560,"time": "2018-08-15 05:58:12pm", "schedule_type": "STATIC", "schedule_name": "random_8", "is_biased_choice":false,"side_choice": "LEFT", "trial_number":70,"observed_reward":0,"unobserved_reward":0},{"RT":2720,"time": "2018-08-15 05:58:15pm", "schedule_type": "STATIC", "schedule_name": "random_8", "is_biased_choice":true,"side_choice": "RIGHT", "trial_number":71,"observed_reward":0,"unobserved_reward":0},{"RT":2303,"time": "2018-08-15 05:58:19pm", "schedule_type": "STATIC", "schedule_name": "random_8", "is_biased_choice":false,"side_choice": "LEFT", "trial_number":72,"observed_reward":0,"unobserved_reward":0},{"RT":2416,"time": "2018-08-15 05:58:19pm", "schedule_type": "STATIC", "schedule_name": "random_8", "is_biased_choice":true,"side_choice": "RIGHT", "trial_number":73,"observed_reward":0,"unobserved_reward":0},{"RT":2320,"time": "2018-08-15 05:58:22pm", "schedule_type": "STATIC", "schedule_name": "random_8", "is_biased_choice":false,"side_choice": "LEFT", "trial_number":74,"observed_reward":0,"unobserved_reward":1},{"RT":2464,"time": "2018-08-15 05:58:24pm", "schedule_type": "STATIC", "schedule_name": "random_8", "is_biased_choice":false,"side_choice": "LEFT", "trial_number":75,"observed_reward":0,"unobserved_reward":0},{"RT":2527,"time": "2018-08-15 05:58:27pm", "schedule_type": "STATIC", "schedule_name": "random_8", "is_biased_choice":true,"side_choice": "RIGHT", "trial_number":76,"observed_reward":1,"unobserved_reward":0},{"RT":2864,"time": "2018-08-15 05:58:30pm", "schedule_type": "STATIC", "schedule_name": "random_8", "is_biased_choice":true,"side_choice": "RIGHT", "trial_number":77,"observed_reward":0,"unobserved_reward":0},{"RT":2769,"time": "2018-08-15 05:58:33pm", "schedule_type": "STATIC", "schedule_name": "random_8", "is_biased_choice":false,"side_choice": "LEFT", "trial_number":78,"observed_reward":1,"unobserved_reward":0},{"RT":11711,"time": "2018-08-15 05:58:45pm", "schedule_type": "STATIC", "schedule_name": "random_8", "is_biased_choice":false,"side_choice": "LEFT", "trial_number":79,"observed_reward":0,"unobserved_reward":0},{"RT":6655,"time": "2018-08-15 05:58:51pm", "schedule_type": "STATIC", "schedule_name": "random_8", "is_biased_choice":true,"side_choice": "RIGHT", "trial_number":80,"observed_reward":1,"unobserved_reward":0},{"RT":4752,"time": "2018-08-15 05:58:56pm", "schedule_type": "STATIC", "schedule_name": "random_8", "is_biased_choice":false,"side_choice": "LEFT", "trial_number":81,"observed_reward":0,"unobserved_reward":0},{"RT":3130,"time": "2018-08-15 05:58:59pm", "schedule_type": "STATIC", "schedule_name": "random_8", "is_biased_choice":true,"side_choice": "RIGHT", "trial_number":82,"observed_reward":0,"unobserved_reward":1},{"RT":3032,"time": "2018-08-15 05:59:02pm", "schedule_type": "STATIC", "schedule_name": "random_8", "is_biased_choice":true,"side_choice": "RIGHT", "trial_number":83,"observed_reward":0,"unobserved_reward":0},{"RT":3312,"time": "2018-08-15 05:59:06pm", "schedule_type": "STATIC", "schedule_name": "random_8", "is_biased_choice":false,"side_choice": "LEFT", "trial_number":84,"observed_reward":0,"unobserved_reward":0},{"RT":2472,"time": "2018-08-15 05:59:08pm", "schedule_type": "STATIC", "schedule_name": "random_8", "is_biased_choice":false,"side_choice": "LEFT", "trial_number":85,"observed_reward":0,"unobserved_reward":0},{"RT":2785,"time": "2018-08-15 05:59:10pm", "schedule_type": "STATIC", "schedule_name": "random_8", "is_biased_choice":true,"side_choice": "RIGHT", "trial_number":86,"observed_reward":0,"unobserved_reward":0},{"RT":2454,"time": "2018-08-15 05:59:13pm", "schedule_type": "STATIC", "schedule_name": "random_8", "is_biased_choice":false,"side_choice": "LEFT", "trial_number":87,"observed_reward":0,"unobserved_reward":0},{"RT":2265,"time": "2018-08-15 05:59:15pm", "schedule_type": "STATIC", "schedule_name": "random_8", "is_biased_choice":true,"side_choice": "RIGHT", "trial_number":88,"observed_reward":0,"unobserved_reward":0},{"RT":2304,"time": "2018-08-15 05:59:18pm", "schedule_type": "STATIC", "schedule_name": "random_8", "is_biased_choice":false,"side_choice": "LEFT", "trial_number":89,"observed_reward":0,"unobserved_reward":0},{"RT":2553,"time": "2018-08-15 05:59:20pm", "schedule_type": "STATIC", "schedule_name": "random_8", "is_biased_choice":false,"side_choice": "LEFT", "trial_number":90,"observed_reward":0,"unobserved_reward":1},{"RT":2471,"time": "2018-08-15 05:59:23pm", "schedule_type": "STATIC", "schedule_name": "random_8", "is_biased_choice":false,"side_choice": "LEFT", "trial_number":91,"observed_reward":0,"unobserved_reward":1},{"RT":2216,"time": "2018-08-15 05:59:24pm", "schedule_type": "STATIC", "schedule_name": "random_8", "is_biased_choice":true,"side_choice": "RIGHT", "trial_number":92,"observed_reward":0,"unobserved_reward":0},{"RT":2776,"time": "2018-08-15 05:59:28pm", "schedule_type": "STATIC", "schedule_name": "random_8", "is_biased_choice":true,"side_choice": "RIGHT", "trial_number":93,"observed_reward":0,"unobserved_reward":0},{"RT":2440,"time": "2018-08-15 05:59:30pm", "schedule_type": "STATIC", "schedule_name": "random_8", "is_biased_choice":false,"side_choice": "LEFT", "trial_number":94,"observed_reward":1,"unobserved_reward":0},{"RT":2535,"time": "2018-08-15 05:59:32pm", "schedule_type": "STATIC", "schedule_name": "random_8", "is_biased_choice":false,"side_choice": "LEFT", "trial_number":95,"observed_reward":0,"unobserved_reward":0},{"RT":2321,"time": "2018-08-15 05:59:35pm", "schedule_type": "STATIC", "schedule_name": "random_8", "is_biased_choice":true,"side_choice": "RIGHT", "trial_number":96,"observed_reward":1,"unobserved_reward":1},{"RT":2896,"time": "2018-08-15 05:59:38pm", "schedule_type": "STATIC", "schedule_name": "random_8", "is_biased_choice":false,"side_choice": "LEFT", "trial_number":97,"observed_reward":1,"unobserved_reward":0},{"RT":3967,"time": "2018-08-15 05:59:42pm", "schedule_type": "STATIC", "schedule_name": "random_8", "is_biased_choice":false,"side_choice": "LEFT", "trial_number":98,"observed_reward":0,"unobserved_reward":0},{"RT":2864,"time": "2018-08-15 05:59:44pm", "schedule_type": "STATIC", "schedule_name": "random_8", "is_biased_choice":false,"side_choice": "LEFT", "trial_number":99,"observed_reward":0,"unobserved_reward":1},