trial_number, time, schedule_type, schedule_name, is_biased_choice, side_choice, RT, observed_reward, unobserved_reward, biased_reward, unbiased_reward
0,2018-08-15 01:45:27pm, STATIC, random_8, true, LEFT, 9118, 0, 0, 0, 0
1,2018-08-15 01:45:35pm, STATIC, random_8, false, RIGHT, 7543, 0, 1, 1, 0
2,2018-08-15 01:45:38pm, STATIC, random_8, true, LEFT, 3758, 0, 0, 0, 0
3,2018-08-15 01:45:42pm, STATIC, random_8, true, LEFT, 3080, 1, 0, 1, 0
4,2018-08-15 01:45:45pm, STATIC, random_8, false, RIGHT, 3076, 1, 0, 0, 1
5,2018-08-15 01:45:47pm, STATIC, random_8, false, RIGHT, 2755, 0, 0, 0, 0
6,2018-08-15 01:45:50pm, STATIC, random_8, true, LEFT, 2883, 0, 0, 0, 0
7,2018-08-15 01:45:53pm, STATIC, random_8, false, RIGHT, 2588, 0, 1, 1, 0
8,2018-08-15 01:45:55pm, STATIC, random_8, true, LEFT, 2377, 0, 0, 0, 0
9,2018-08-15 01:45:58pm, STATIC, random_8, false, RIGHT, 2521, 0, 0, 0, 0
10,2018-08-15 01:46:01pm, STATIC, random_8, true, LEFT, 2800, 0, 0, 0, 0
11,2018-08-15 01:46:03pm, STATIC, random_8, false, RIGHT, 2920, 0, 0, 0, 0
12,2018-08-15 01:46:06pm, STATIC, random_8, true, LEFT, 2728, 0, 1, 0, 1
13,2018-08-15 01:46:09pm, STATIC, random_8, false, RIGHT, 2928, 1, 0, 0, 1
14,2018-08-15 01:46:12pm, STATIC, random_8, true, LEFT, 2964, 0, 0, 0, 0
15,2018-08-15 01:46:15pm, STATIC, random_8, false, RIGHT, 3079, 1, 0, 0, 1
16,2018-08-15 01:46:27pm, STATIC, random_8, false, RIGHT, 11104, 0, 1, 1, 0
17,2018-08-15 01:46:30pm, STATIC, random_8, true, LEFT, 3544, 1, 1, 1, 1
18,2018-08-15 01:46:33pm, STATIC, random_8, false, RIGHT, 3198, 0, 0, 0, 0
19,2018-08-15 01:46:36pm, STATIC, random_8, true, LEFT, 2788, 0, 0, 0, 0
20,2018-08-15 01:46:38pm, STATIC, random_8, false, RIGHT, 2450, 0, 1, 1, 0
21,2018-08-15 01:46:41pm, STATIC, random_8, false, RIGHT, 2693, 1, 0, 0, 1
22,2018-08-15 01:46:43pm, STATIC, random_8, false, RIGHT, 2443, 0, 0, 0, 0
23,2018-08-15 01:46:46pm, STATIC, random_8, false, RIGHT, 2491, 1, 0, 0, 1
24,2018-08-15 01:46:49pm, STATIC, random_8, true, LEFT, 2837, 1, 0, 1, 0
25,2018-08-15 01:46:51pm, STATIC, random_8, true, LEFT, 2350, 0, 0, 0, 0
26,2018-08-15 01:46:54pm, STATIC, random_8, false, RIGHT, 2530, 1, 0, 0, 1
27,2018-08-15 01:46:56pm, STATIC, random_8, false, RIGHT, 2412, 1, 0, 0, 1
28,2018-08-15 01:46:59pm, STATIC, random_8, false, RIGHT, 2554, 0, 0, 0, 0
29,2018-08-15 01:47:01pm, STATIC, random_8, true, LEFT, 2764, 0, 0, 0, 0
30,2018-08-15 01:47:04pm, STATIC, random_8, false, RIGHT, 2400, 0, 0, 0, 0
31,2018-08-15 01:47:07pm, STATIC, random_8, true, LEFT, 3085, 1, 0, 1, 0
32,2018-08-15 01:47:09pm, STATIC, random_8, false, RIGHT, 2551, 1, 0, 0, 1
33,2018-08-15 01:47:12pm, STATIC, random_8, true, LEFT, 2546, 0, 0, 0, 0
34,2018-08-15 01:47:15pm, STATIC, random_8, false, RIGHT, 2655, 0, 0, 0, 0
35,2018-08-15 01:47:17pm, STATIC, random_8, true, LEFT, 2445, 0, 1, 0, 1
36,2018-08-15 01:47:19pm, STATIC, random_8, true, LEFT, 2501, 0, 0, 0, 0
37,2018-08-15 01:47:22pm, STATIC, random_8, true, LEFT, 2391, 1, 1, 1, 1
38,2018-08-15 01:47:25pm, STATIC, random_8, true, LEFT, 2753, 0, 1, 0, 1
39,2018-08-15 01:47:28pm, STATIC, random_8, false, RIGHT, 2543, 0, 0, 0, 0
40,2018-08-15 01:47:31pm, STATIC, random_8, false, RIGHT, 4074, 0, 0, 0, 0
41,2018-08-15 01:47:35pm, STATIC, random_8, true, LEFT, 3721, 0, 0, 0, 0
42,2018-08-15 01:47:40pm, STATIC, random_8, false, RIGHT, 5047, 1, 0, 0, 1
43,2018-08-15 01:47:53pm, STATIC, random_8, false, RIGHT, 12895, 0, 0, 0, 0
44,2018-08-15 01:47:58pm, STATIC, random_8, false, RIGHT, 5260, 0, 1, 1, 0
45,2018-08-15 01:48:02pm, STATIC, random_8, true, LEFT, 3590, 0, 0, 0, 0
46,2018-08-15 01:48:07pm, STATIC, random_8, false, RIGHT, 5622, 0, 0, 0, 0
47,2018-08-15 01:48:13pm, STATIC, random_8, true, LEFT, 5536, 0, 0, 0, 0
48,2018-08-15 01:48:22pm, STATIC, random_8, false, RIGHT, 9039, 1, 1, 1, 1
49,2018-08-15 01:48:29pm, STATIC, random_8, false, RIGHT, 5563, 0, 0, 0, 0
50,2018-08-15 01:48:32pm, STATIC, random_8, true, LEFT, 4681, 0, 0, 0, 0
51,2018-08-15 01:48:37pm, STATIC, random_8, false, RIGHT, 5054, 0, 1, 1, 0
52,2018-08-15 01:48:42pm, STATIC, random_8, false, RIGHT, 4770, 0, 0, 0, 0
53,2018-08-15 01:48:46pm, STATIC, random_8, true, LEFT, 3503, 1, 1, 1, 1
54,2018-08-15 01:48:49pm, STATIC, random_8, false, RIGHT, 3353, 0, 0, 0, 0
55,2018-08-15 01:48:53pm, STATIC, random_8, true, LEFT, 4310, 1, 0, 1, 0
56,2018-08-15 01:48:57pm, STATIC, random_8, false, RIGHT, 3964, 0, 0, 0, 0
57,2018-08-15 01:49:00pm, STATIC, random_8, true, LEFT, 2952, 0, 1, 0, 1
58,2018-08-15 01:49:04pm, STATIC, random_8, false, RIGHT, 3903, 0, 0, 0, 0
59,2018-08-15 01:49:07pm, STATIC, random_8, true, LEFT, 2805, 0, 0, 0, 0
60,2018-08-15 01:49:09pm, STATIC, random_8, false, RIGHT, 2629, 0, 0, 0, 0
61,2018-08-15 01:49:15pm, STATIC, random_8, true, LEFT, 5775, 1, 1, 1, 1
62,2018-08-15 01:49:18pm, STATIC, random_8, false, RIGHT, 3068, 0, 1, 1, 0
63,2018-08-15 01:49:21pm, STATIC, random_8, true, LEFT, 2783, 0, 0, 0, 0
64,2018-08-15 01:49:25pm, STATIC, random_8, false, RIGHT, 4215, 0, 0, 0, 0
65,2018-08-15 01:49:29pm, STATIC, random_8, true, LEFT, 3904, 1, 0, 1, 0
66,2018-08-15 01:49:32pm, STATIC, random_8, false, RIGHT, 2678, 0, 1, 1, 0
67,2018-08-15 01:49:36pm, STATIC, random_8, true, LEFT, 4266, 0, 1, 0, 1
68,2018-08-15 01:49:39pm, STATIC, random_8, false, RIGHT, 3256, 0, 0, 0, 0
69,2018-08-15 01:49:43pm, STATIC, random_8, true, LEFT, 3714, 0, 1, 0, 1
70,2018-08-15 01:49:46pm, STATIC, random_8, false, RIGHT, 3028, 0, 0, 0, 0
71,2018-08-15 01:49:48pm, STATIC, random_8, true, LEFT, 2200, 0, 0, 0, 0
72,2018-08-15 01:49:52pm, STATIC, random_8, false, RIGHT, 3384, 0, 0, 0, 0
73,2018-08-15 01:49:56pm, STATIC, random_8, true, LEFT, 4159, 0, 0, 0, 0
74,2018-08-15 01:49:59pm, STATIC, random_8, false, RIGHT, 3149, 0, 1, 1, 0
75,2018-08-15 01:50:02pm, STATIC, random_8, true, LEFT, 2852, 0, 0, 0, 0
76,2018-08-15 01:50:07pm, STATIC, random_8, false, RIGHT, 5590, 0, 1, 1, 0
77,2018-08-15 01:50:22pm, STATIC, random_8, true, LEFT, 14234, 0, 0, 0, 0
78,2018-08-15 01:50:53pm, STATIC, random_8, false, RIGHT, 31248, 1, 0, 0, 1
79,2018-08-15 01:51:00pm, STATIC, random_8, false, RIGHT, 7034, 0, 0, 0, 0
80,2018-08-15 01:51:08pm, STATIC, random_8, false, RIGHT, 7970, 0, 1, 1, 0
81,2018-08-15 01:51:13pm, STATIC, random_8, true, LEFT, 4981, 0, 0, 0, 0
82,2018-08-15 01:51:16pm, STATIC, random_8, false, RIGHT, 2729, 1, 0, 0, 1
83,2018-08-15 01:51:22pm, STATIC, random_8, false, RIGHT, 6124, 0, 0, 0, 0
84,2018-08-15 01:51:31pm, STATIC, random_8, true, LEFT, 8941, 0, 0, 0, 0
85,2018-08-15 01:51:35pm, STATIC, random_8, false, RIGHT, 4474, 0, 0, 0, 0
86,2018-08-15 01:51:41pm, STATIC, random_8, false, RIGHT, 5969, 0, 0, 0, 0
87,2018-08-15 01:51:47pm, STATIC, random_8, true, LEFT, 5584, 0, 0, 0, 0
88,2018-08-15 01:51:57pm, STATIC, random_8, true, LEFT, 10346, 0, 0, 0, 0
89,2018-08-15 01:52:02pm, STATIC, random_8, true, LEFT, 4820, 0, 0, 0, 0
90,2018-08-15 01:52:07pm, STATIC, random_8, true, LEFT, 4984, 1, 0, 1, 0
91,2018-08-15 01:52:17pm, STATIC, random_8, true, LEFT, 10502, 1, 0, 1, 0
92,2018-08-15 01:52:23pm, STATIC, random_8, false, RIGHT, 5672, 0, 0, 0, 0
93,2018-08-15 01:52:27pm, STATIC, random_8, true, LEFT, 3674, 0, 0, 0, 0
94,2018-08-15 01:52:39pm, STATIC, random_8, false, RIGHT, 11739, 1, 0, 0, 1
95,2018-08-15 01:52:42pm, STATIC, random_8, false, RIGHT, 3677, 0, 0, 0, 0
96,2018-08-15 01:52:48pm, STATIC, random_8, false, RIGHT, 6212, 1, 1, 1, 1
97,2018-08-15 01:52:54pm, STATIC, random_8, true, LEFT, 5460, 0, 1, 0, 1
98,2018-08-15 01:52:59pm, STATIC, random_8, false, RIGHT, 4718, 0, 0, 0, 0
