trial_number, time, schedule_type, schedule_name, is_biased_choice, side_choice, RT, observed_reward, unobserved_reward, biased_reward, unbiased_reward
0,2018-08-15 03:28:52pm, STATIC, random_18, true, RIGHT, 3639, 1, 1, 1, 1
1,2018-08-15 03:28:55pm, STATIC, random_18, true, RIGHT, 3831, 0, 0, 0, 0
2,2018-08-15 03:28:59pm, STATIC, random_18, true, RIGHT, 3511, 0, 0, 0, 0
3,2018-08-15 03:29:02pm, STATIC, random_18, false, LEFT, 3306, 1, 0, 0, 1
4,2018-08-15 03:29:05pm, STATIC, random_18, false, LEFT, 3102, 0, 0, 0, 0
5,2018-08-15 03:29:09pm, STATIC, random_18, true, RIGHT, 3191, 0, 0, 0, 0
6,2018-08-15 03:29:14pm, STATIC, random_18, true, RIGHT, 3145, 1, 0, 1, 0
7,2018-08-15 03:29:16pm, STATIC, random_18, false, LEFT, 4124, 0, 0, 0, 0
8,2018-08-15 03:29:19pm, STATIC, random_18, true, RIGHT, 3567, 1, 0, 1, 0
9,2018-08-15 03:29:23pm, STATIC, random_18, false, LEFT, 3293, 0, 0, 0, 0
10,2018-08-15 03:29:26pm, STATIC, random_18, true, RIGHT, 3320, 0, 0, 0, 0
11,2018-08-15 03:29:29pm, STATIC, random_18, true, RIGHT, 3003, 1, 0, 1, 0
12,2018-08-15 03:29:32pm, STATIC, random_18, false, LEFT, 3121, 0, 0, 0, 0
13,2018-08-15 03:29:35pm, STATIC, random_18, false, LEFT, 2868, 1, 1, 1, 1
14,2018-08-15 03:29:38pm, STATIC, random_18, true, RIGHT, 2945, 0, 0, 0, 0
15,2018-08-15 03:29:41pm, STATIC, random_18, true, RIGHT, 2896, 1, 0, 1, 0
16,2018-08-15 03:29:44pm, STATIC, random_18, true, RIGHT, 3025, 1, 0, 1, 0
17,2018-08-15 03:29:47pm, STATIC, random_18, true, RIGHT, 2870, 0, 1, 0, 1
18,2018-08-15 03:29:49pm, STATIC, random_18, false, LEFT, 2754, 1, 0, 0, 1
19,2018-08-15 03:29:52pm, STATIC, random_18, false, LEFT, 2878, 0, 0, 0, 0
20,2018-08-15 03:29:55pm, STATIC, random_18, false, LEFT, 2855, 0, 0, 0, 0
21,2018-08-15 03:29:58pm, STATIC, random_18, false, LEFT, 2818, 0, 0, 0, 0
22,2018-08-15 03:30:01pm, STATIC, random_18, false, LEFT, 2690, 0, 0, 0, 0
23,2018-08-15 03:30:03pm, STATIC, random_18, true, RIGHT, 2701, 0, 0, 0, 0
24,2018-08-15 03:30:06pm, STATIC, random_18, true, RIGHT, 2673, 0, 1, 0, 1
25,2018-08-15 03:30:09pm, STATIC, random_18, true, RIGHT, 3042, 0, 0, 0, 0
26,2018-08-15 03:30:12pm, STATIC, random_18, false, LEFT, 2687, 0, 0, 0, 0
27,2018-08-15 03:30:15pm, STATIC, random_18, false, LEFT, 2774, 1, 1, 1, 1
28,2018-08-15 03:30:17pm, STATIC, random_18, false, LEFT, 2771, 0, 0, 0, 0
29,2018-08-15 03:30:20pm, STATIC, random_18, true, RIGHT, 2566, 0, 1, 0, 1
30,2018-08-15 03:30:23pm, STATIC, random_18, false, LEFT, 2703, 0, 0, 0, 0
31,2018-08-15 03:30:25pm, STATIC, random_18, false, LEFT, 2624, 0, 1, 1, 0
32,2018-08-15 03:30:28pm, STATIC, random_18, false, LEFT, 2927, 0, 0, 0, 0
33,2018-08-15 03:30:31pm, STATIC, random_18, true, RIGHT, 2635, 0, 0, 0, 0
34,2018-08-15 03:30:33pm, STATIC, random_18, false, LEFT, 2567, 1, 0, 0, 1
35,2018-08-15 03:30:36pm, STATIC, random_18, false, LEFT, 2841, 0, 0, 0, 0
36,2018-08-15 03:30:39pm, STATIC, random_18, true, RIGHT, 2745, 1, 0, 1, 0
37,2018-08-15 03:30:42pm, STATIC, random_18, true, RIGHT, 2698, 0, 1, 0, 1
38,2018-08-15 03:30:45pm, STATIC, random_18, false, LEFT, 2813, 0, 0, 0, 0
39,2018-08-15 03:30:47pm, STATIC, random_18, false, LEFT, 2601, 0, 0, 0, 0
40,2018-08-15 03:30:50pm, STATIC, random_18, false, LEFT, 2670, 0, 0, 0, 0
41,2018-08-15 03:30:52pm, STATIC, random_18, false, LEFT, 2712, 0, 0, 0, 0
42,2018-08-15 03:30:55pm, STATIC, random_18, true, RIGHT, 2648, 0, 0, 0, 0
43,2018-08-15 03:30:58pm, STATIC, random_18, true, RIGHT, 2545, 0, 0, 0, 0
44,2018-08-15 03:31:00pm, STATIC, random_18, false, LEFT, 2663, 0, 0, 0, 0
45,2018-08-15 03:31:03pm, STATIC, random_18, true, RIGHT, 2521, 0, 1, 0, 1
46,2018-08-15 03:31:06pm, STATIC, random_18, false, LEFT, 2609, 0, 1, 1, 0
47,2018-08-15 03:31:08pm, STATIC, random_18, false, LEFT, 2534, 1, 0, 0, 1
48,2018-08-15 03:31:11pm, STATIC, random_18, false, LEFT, 2680, 0, 0, 0, 0
49,2018-08-15 03:31:13pm, STATIC, random_18, true, RIGHT, 2519, 0, 0, 0, 0
50,2018-08-15 03:31:16pm, STATIC, random_18, true, RIGHT, 2706, 0, 0, 0, 0
51,2018-08-15 03:31:18pm, STATIC, random_18, false, LEFT, 2622, 1, 1, 1, 1
52,2018-08-15 03:31:21pm, STATIC, random_18, true, RIGHT, 2770, 0, 0, 0, 0
53,2018-08-15 03:31:24pm, STATIC, random_18, false, LEFT, 2625, 1, 1, 1, 1
54,2018-08-15 03:31:27pm, STATIC, random_18, true, RIGHT, 2661, 1, 0, 1, 0
55,2018-08-15 03:31:29pm, STATIC, random_18, false, LEFT, 2585, 0, 1, 1, 0
56,2018-08-15 03:31:32pm, STATIC, random_18, true, RIGHT, 2488, 0, 1, 0, 1
57,2018-08-15 03:31:34pm, STATIC, random_18, true, RIGHT, 2687, 0, 0, 0, 0
58,2018-08-15 03:31:37pm, STATIC, random_18, false, LEFT, 2609, 1, 0, 0, 1
59,2018-08-15 03:31:40pm, STATIC, random_18, false, LEFT, 2664, 0, 1, 1, 0
60,2018-08-15 03:31:42pm, STATIC, random_18, false, LEFT, 2617, 0, 0, 0, 0
61,2018-08-15 03:31:45pm, STATIC, random_18, false, LEFT, 2567, 0, 0, 0, 0
62,2018-08-15 03:31:47pm, STATIC, random_18, true, RIGHT, 2536, 0, 1, 0, 1
63,2018-08-15 03:31:50pm, STATIC, random_18, true, RIGHT, 2535, 0, 1, 0, 1
64,2018-08-15 03:31:52pm, STATIC, random_18, false, LEFT, 2608, 0, 1, 1, 0
65,2018-08-15 03:31:55pm, STATIC, random_18, true, RIGHT, 2552, 0, 0, 0, 0
66,2018-08-15 03:31:58pm, STATIC, random_18, false, LEFT, 2585, 0, 0, 0, 0
67,2018-08-15 03:32:00pm, STATIC, random_18, false, LEFT, 2552, 1, 1, 1, 1
68,2018-08-15 03:32:03pm, STATIC, random_18, true, RIGHT, 2512, 0, 1, 0, 1
69,2018-08-15 03:32:05pm, STATIC, random_18, false, LEFT, 2561, 0, 0, 0, 0
70,2018-08-15 03:32:08pm, STATIC, random_18, false, LEFT, 2639, 0, 0, 0, 0
71,2018-08-15 03:32:11pm, STATIC, random_18, true, RIGHT, 2694, 0, 0, 0, 0
72,2018-08-15 03:32:13pm, STATIC, random_18, false, LEFT, 2707, 0, 0, 0, 0
73,2018-08-15 03:32:16pm, STATIC, random_18, true, RIGHT, 2543, 1, 0, 1, 0
74,2018-08-15 03:32:18pm, STATIC, random_18, false, LEFT, 2472, 1, 0, 0, 1
75,2018-08-15 03:32:21pm, STATIC, random_18, true, RIGHT, 2561, 0, 0, 0, 0
76,2018-08-15 03:32:23pm, STATIC, random_18, false, LEFT, 2537, 1, 0, 0, 1
77,2018-08-15 03:32:26pm, STATIC, random_18, true, RIGHT, 2694, 0, 0, 0, 0
78,2018-08-15 03:32:29pm, STATIC, random_18, false, LEFT, 3271, 0, 0, 0, 0
79,2018-08-15 03:32:32pm, STATIC, random_18, false, LEFT, 2744, 0, 0, 0, 0
80,2018-08-15 03:32:35pm, STATIC, random_18, true, RIGHT, 2480, 0, 0, 0, 0
81,2018-08-15 03:32:37pm, STATIC, random_18, true, RIGHT, 2440, 0, 0, 0, 0
82,2018-08-15 03:32:40pm, STATIC, random_18, false, LEFT, 2496, 1, 0, 0, 1
83,2018-08-15 03:32:42pm, STATIC, random_18, true, RIGHT, 2496, 0, 0, 0, 0
84,2018-08-15 03:32:45pm, STATIC, random_18, false, LEFT, 2522, 0, 0, 0, 0
85,2018-08-15 03:32:47pm, STATIC, random_18, true, RIGHT, 2519, 1, 0, 1, 0
86,2018-08-15 03:32:49pm, STATIC, random_18, false, LEFT, 2504, 1, 0, 0, 1
87,2018-08-15 03:32:52pm, STATIC, random_18, true, RIGHT, 2592, 1, 0, 1, 0
88,2018-08-15 03:32:55pm, STATIC, random_18, false, LEFT, 2464, 1, 0, 0, 1
89,2018-08-15 03:32:57pm, STATIC, random_18, true, RIGHT, 2575, 0, 0, 0, 0
90,2018-08-15 03:33:00pm, STATIC, random_18, false, LEFT, 2480, 0, 1, 1, 0
91,2018-08-15 03:33:02pm, STATIC, random_18, true, RIGHT, 2520, 0, 0, 0, 0
92,2018-08-15 03:33:05pm, STATIC, random_18, false, LEFT, 2545, 0, 0, 0, 0
93,2018-08-15 03:33:07pm, STATIC, random_18, true, RIGHT, 2720, 1, 0, 1, 0
94,2018-08-15 03:33:10pm, STATIC, random_18, false, LEFT, 2569, 0, 1, 1, 0
95,2018-08-15 03:33:13pm, STATIC, random_18, true, RIGHT, 2622, 1, 0, 1, 0
96,2018-08-15 03:33:15pm, STATIC, random_18, false, LEFT, 2609, 0, 0, 0, 0
97,2018-08-15 03:33:18pm, STATIC, random_18, true, RIGHT, 2535, 0, 0, 0, 0
98,2018-08-15 03:33:20pm, STATIC, random_18, false, LEFT, 2424, 0, 0, 0, 0
99,2018-08-15 03:33:23pm, STATIC, random_18, true, RIGHT, 2632, 0, 0, 0, 0
