[{"RT":2041,"time": "2018-08-15 05:42:00pm", "schedule_type": "STATIC", "schedule_name": "random_18", "is_biased_choice":true,"side_choice": "LEFT", "trial_number":0,"observed_reward":1,"unobserved_reward":1},{"RT":3025,"time": "2018-08-15 05:42:03pm", "schedule_type": "STATIC", "schedule_name": "random_18", "is_biased_choice":true,"side_choice": "LEFT", "trial_number":1,"observed_reward":0,"unobserved_reward":0},{"RT":2676,"time": "2018-08-15 05:42:06pm", "schedule_type": "STATIC", "schedule_name": "random_18", "is_biased_choice":false,"side_choice": "RIGHT", "trial_number":2,"observed_reward":0,"unobserved_reward":0},{"RT":3145,"time": "2018-08-15 05:42:09pm", "schedule_type": "STATIC", "schedule_name": "random_18", "is_biased_choice":false,"side_choice": "RIGHT", "trial_number":3,"observed_reward":1,"unobserved_reward":0},{"RT":2339,"time": "2018-08-15 05:42:11pm", "schedule_type": "STATIC", "schedule_name": "random_18", "is_biased_choice":false,"side_choice": "RIGHT", "trial_number":4,"observed_reward":0,"unobserved_reward":0},{"RT":2323,"time": "2018-08-15 05:42:13pm", "schedule_type": "STATIC", "schedule_name": "random_18", "is_biased_choice":true,"side_choice": "LEFT", "trial_number":5,"observed_reward":0,"unobserved_reward":0},{"RT":2268,"time": "2018-08-15 05:42:16pm", "schedule_type": "STATIC", "schedule_name": "random_18", "is_biased_choice":true,"side_choice": "LEFT", "trial_number":6,"observed_reward":1,"unobserved_reward":0},{"RT":2260,"time": "2018-08-15 05:42:18pm", "schedule_type": "STATIC", "schedule_name": "random_18", "is_biased_choice":true,"side_choice": "LEFT", "trial_number":7,"observed_reward":0,"unobserved_reward":0},{"RT":2299,"time": "2018-08-15 05:42:20pm", "schedule_type": "STATIC", "schedule_name": "random_18", "is_biased_choice":true,"side_choice": "LEFT", "trial_number":8,"observed_reward":1,"unobserved_reward":0},{"RT":2275,"time": "2018-08-15 05:42:22pm", "schedule_type": "STATIC", "schedule_name": "random_18", "is_biased_choice":true,"side_choice": "LEFT", "trial_number":9,"observed_reward":0,"unobserved_reward":0},{"RT":2165,"time": "2018-08-15 05:42:25pm", "schedule_type": "STATIC", "schedule_name": "random_18", "is_biased_choice":true,"side_choice": "LEFT", "trial_number":10,"observed_reward":0,"unobserved_reward":0},{"RT":2155,"time": "2018-08-15 05:42:27pm", "schedule_type": "STATIC", "schedule_name": "random_18", "is_biased_choice":true,"side_choice": "LEFT", "trial_number":11,"observed_reward":1,"unobserved_reward":0},{"RT":2266,"time": "2018-08-15 05:42:29pm", "schedule_type": "STATIC", "schedule_name": "random_18", "is_biased_choice":true,"side_choice": "LEFT", "trial_number":12,"observed_reward":0,"unobserved_reward":0},{"RT":2245,"time": "2018-08-15 05:42:31pm", "schedule_type": "STATIC", "schedule_name": "random_18", "is_biased_choice":true,"side_choice": "LEFT", "trial_number":13,"observed_reward":1,"unobserved_reward":1},{"RT":2228,"time": "2018-08-15 05:42:33pm", "schedule_type": "STATIC", "schedule_name": "random_18", "is_biased_choice":true,"side_choice": "LEFT", "trial_number":14,"observed_reward":0,"unobserved_reward":0},{"RT":2148,"time": "2018-08-15 05:42:36pm", "schedule_type": "STATIC", "schedule_name": "random_18", "is_biased_choice":true,"side_choice": "LEFT", "trial_number":15,"observed_reward":1,"unobserved_reward":0},{"RT":2236,"time": "2018-08-15 05:42:38pm", "schedule_type": "STATIC", "schedule_name": "random_18", "is_biased_choice":true,"side_choice": "LEFT", "trial_number":16,"observed_reward":1,"unobserved_reward":0},{"RT":2235,"time": "2018-08-15 05:42:40pm", "schedule_type": "STATIC", "schedule_name": "random_18", "is_biased_choice":true,"side_choice": "LEFT", "trial_number":17,"observed_reward":0,"unobserved_reward":1},{"RT":2587,"time": "2018-08-15 05:42:43pm", "schedule_type": "STATIC", "schedule_name": "random_18", "is_biased_choice":true,"side_choice": "LEFT", "trial_number":18,"observed_reward":0,"unobserved_reward":1},{"RT":2156,"time": "2018-08-15 05:42:45pm", "schedule_type": "STATIC", "schedule_name": "random_18", "is_biased_choice":true,"side_choice": "LEFT", "trial_number":19,"observed_reward":0,"unobserved_reward":0},{"RT":2196,"time": "2018-08-15 05:42:47pm", "schedule_type": "STATIC", "schedule_name": "random_18", "is_biased_choice":true,"side_choice": "LEFT", "trial_number":20,"observed_reward":0,"unobserved_reward":0},{"RT":2108,"time": "2018-08-15 05:42:49pm", "schedule_type": "STATIC", "schedule_name": "random_18", "is_biased_choice":true,"side_choice": "LEFT", "trial_number":21,"observed_reward":0,"unobserved_reward":0},{"RT":2228,"time": "2018-08-15 05:42:51pm", "schedule_type": "STATIC", "schedule_name": "random_18", "is_biased_choice":true,"side_choice": "LEFT", "trial_number":22,"observed_reward":0,"unobserved_reward":0},{"RT":2227,"time": "2018-08-15 05:42:54pm", "schedule_type": "STATIC", "schedule_name": "random_18", "is_biased_choice":false,"side_choice": "RIGHT", "trial_number":23,"observed_reward":0,"unobserved_reward":0},{"RT":2108,"time": "2018-08-15 05:42:56pm", "schedule_type": "STATIC", "schedule_name": "random_18", "is_biased_choice":true,"side_choice": "LEFT", "trial_number":24,"observed_reward":0,"unobserved_reward":1},{"RT":2228,"time": "2018-08-15 05:42:58pm", "schedule_type": "STATIC", "schedule_name": "random_18", "is_biased_choice":false,"side_choice": "RIGHT", "trial_number":25,"observed_reward":0,"unobserved_reward":0},{"RT":2133,"time": "2018-08-15 05:43:00pm", "schedule_type": "STATIC", "schedule_name": "random_18", "is_biased_choice":false,"side_choice": "RIGHT", "trial_number":26,"observed_reward":0,"unobserved_reward":0},{"RT":2178,"time": "2018-08-15 05:43:02pm", "schedule_type": "STATIC", "schedule_name": "random_18", "is_biased_choice":true,"side_choice": "LEFT", "trial_number":27,"observed_reward":1,"unobserved_reward":1},{"RT":2563,"time": "2018-08-15 05:43:05pm", "schedule_type": "STATIC", "schedule_name": "random_18", "is_biased_choice":true,"side_choice": "LEFT", "trial_number":28,"observed_reward":0,"unobserved_reward":0},{"RT":2419,"time": "2018-08-15 05:43:07pm", "schedule_type": "STATIC", "schedule_name": "random_18", "is_biased_choice":true,"side_choice": "LEFT", "trial_number":29,"observed_reward":0,"unobserved_reward":1},{"RT":2123,"time": "2018-08-15 05:43:09pm", "schedule_type": "STATIC", "schedule_name": "random_18", "is_biased_choice":false,"side_choice": "RIGHT", "trial_number":30,"observed_reward":0,"unobserved_reward":0},{"RT":2196,"time": "2018-08-15 05:43:12pm", "schedule_type": "STATIC", "schedule_name": "random_18", "is_biased_choice":false,"side_choice": "RIGHT", "trial_number":31,"observed_reward":0,"unobserved_reward":1},{"RT":2395,"time": "2018-08-15 05:43:14pm", "schedule_type": "STATIC", "schedule_name": "random_18", "is_biased_choice":false,"side_choice": "RIGHT", "trial_number":32,"observed_reward":0,"unobserved_reward":0},{"RT":2588,"time": "2018-08-15 05:43:17pm", "schedule_type": "STATIC", "schedule_name": "random_18", "is_biased_choice":true,"side_choice": "LEFT", "trial_number":33,"observed_reward":0,"unobserved_reward":0},{"RT":2195,"time": "2018-08-15 05:43:19pm", "schedule_type": "STATIC", "schedule_name": "random_18", "is_biased_choice":true,"side_choice": "LEFT", "trial_number":34,"observed_reward":0,"unobserved_reward":1},{"RT":2092,"time": "2018-08-15 05:43:21pm", "schedule_type": "STATIC", "schedule_name": "random_18", "is_biased_choice":true,"side_choice": "LEFT", "trial_number":35,"observed_reward":0,"unobserved_reward":0},{"RT":2819,"time": "2018-08-15 05:43:24pm", "schedule_type": "STATIC", "schedule_name": "random_18", "is_biased_choice":true,"side_choice": "LEFT", "trial_number":36,"observed_reward":1,"unobserved_reward":0},{"RT":2300,"time": "2018-08-15 05:43:26pm", "schedule_type": "STATIC", "schedule_name": "random_18", "is_biased_choice":true,"side_choice": "LEFT", "trial_number":37,"observed_reward":0,"unobserved_reward":1},{"RT":2147,"time": "2018-08-15 05:43:28pm", "schedule_type": "STATIC", "schedule_name": "random_18", "is_biased_choice":true,"side_choice": "LEFT", "trial_number":38,"observed_reward":0,"unobserved_reward":0},{"RT":2707,"time": "2018-08-15 05:43:31pm", "schedule_type": "STATIC", "schedule_name": "random_18", "is_biased_choice":true,"side_choice": "LEFT", "trial_number":39,"observed_reward":0,"unobserved_reward":0},{"RT":2427,"time": "2018-08-15 05:43:33pm", "schedule_type": "STATIC", "schedule_name": "random_18", "is_biased_choice":false,"side_choice": "RIGHT", "trial_number":40,"observed_reward":0,"unobserved_reward":0},{"RT":2315,"time": "2018-08-15 05:43:36pm", "schedule_type": "STATIC", "schedule_name": "random_18", "is_biased_choice":true,"side_choice": "LEFT", "trial_number":41,"observed_reward":0,"unobserved_reward":0},{"RT":2325,"time": "2018-08-15 05:43:38pm", "schedule_type": "STATIC", "schedule_name": "random_18", "is_biased_choice":true,"side_choice": "LEFT", "trial_number":42,"observed_reward":0,"unobserved_reward":0},{"RT":2283,"time": "2018-08-15 05:43:40pm", "schedule_type": "STATIC", "schedule_name": "random_18", "is_biased_choice":true,"side_choice": "LEFT", "trial_number":43,"observed_reward":0,"unobserved_reward":0},{"RT":2268,"time": "2018-08-15 05:43:42pm", "schedule_type": "STATIC", "schedule_name": "random_18", "is_biased_choice":false,"side_choice": "RIGHT", "trial_number":44,"observed_reward":0,"unobserved_reward":0},{"RT":2156,"time": "2018-08-15 05:43:45pm", "schedule_type": "STATIC", "schedule_name": "random_18", "is_biased_choice":false,"side_choice": "RIGHT", "trial_number":45,"observed_reward":1,"unobserved_reward":0},{"RT":2187,"time": "2018-08-15 05:43:47pm", "schedule_type": "STATIC", "schedule_name": "random_18", "is_biased_choice":false,"side_choice": "RIGHT", "trial_number":46,"observed_reward":0,"unobserved_reward":1},{"RT":2308,"time": "2018-08-15 05:43:49pm", "schedule_type": "STATIC", "schedule_name": "random_18", "is_biased_choice":true,"side_choice": "LEFT", "trial_number":47,"observed_reward":0,"unobserved_reward":1},{"RT":2172,"time": "2018-08-15 05:43:51pm", "schedule_type": "STATIC", "schedule_name": "random_18", "is_biased_choice":true,"side_choice": "LEFT", "trial_number":48,"observed_reward":0,"unobserved_reward":0},{"RT":2108,"time": "2018-08-15 05:43:53pm", "schedule_type": "STATIC", "schedule_name": "random_18", "is_biased_choice":true,"side_choice": "LEFT", "trial_number":49,"observed_reward":0,"unobserved_reward":0},{"RT":2539,"time": "2018-08-15 05:43:56pm", "schedule_type": "STATIC", "schedule_name": "random_18", "is_biased_choice":true,"side_choice": "LEFT", "trial_number":50,"observed_reward":0,"unobserved_reward":0},{"RT":2203,"time": "2018-08-15 05:43:58pm", "schedule_type": "STATIC", "schedule_name": "random_18", "is_biased_choice":true,"side_choice": "LEFT", "trial_number":51,"observed_reward":1,"unobserved_reward":1},{"RT":2292,"time": "2018-08-15 05:44:00pm", "schedule_type": "STATIC", "schedule_name": "random_18", "is_biased_choice":true,"side_choice": "LEFT", "trial_number":52,"observed_reward":0,"unobserved_reward":0},{"RT":2420,"time": "2018-08-15 05:44:03pm", "schedule_type": "STATIC", "schedule_name": "random_18", "is_biased_choice":true,"side_choice": "LEFT", "trial_number":53,"observed_reward":1,"unobserved_reward":1},{"RT":2308,"time": "2018-08-15 05:44:05pm", "schedule_type": "STATIC", "schedule_name": "random_18", "is_biased_choice":true,"side_choice": "LEFT", "trial_number":54,"observed_reward":1,"unobserved_reward":0},{"RT":2203,"time": "2018-08-15 05:44:07pm", "schedule_type": "STATIC", "schedule_name": "random_18", "is_biased_choice":true,"side_choice": "LEFT", "trial_number":55,"observed_reward":1,"unobserved_reward":0},{"RT":2188,"time": "2018-08-15 05:44:10pm", "schedule_type": "STATIC", "schedule_name": "random_18", "is_biased_choice":true,"side_choice": "LEFT", "trial_number":56,"observed_reward":0,"unobserved_reward":1},{"RT":2068,"time": "2018-08-15 05:44:12pm", "schedule_type": "STATIC", "schedule_name": "random_18", "is_biased_choice":true,"side_choice": "LEFT", "trial_number":57,"observed_reward":0,"unobserved_reward":0},{"RT":2164,"time": "2018-08-15 05:44:14pm", "schedule_type": "STATIC", "schedule_name": "random_18", "is_biased_choice":true,"side_choice": "LEFT", "trial_number":58,"observed_reward":0,"unobserved_reward":1},{"RT":2124,"time": "2018-08-15 05:44:16pm", "schedule_type": "STATIC", "schedule_name": "random_18", "is_biased_choice":true,"side_choice": "LEFT", "trial_number":59,"observed_reward":1,"unobserved_reward":0},{"RT":2172,"time": "2018-08-15 05:44:18pm", "schedule_type": "STATIC", "schedule_name": "random_18", "is_biased_choice":true,"side_choice": "LEFT", "trial_number":60,"observed_reward":0,"unobserved_reward":0},{"RT":2084,"time": "2018-08-15 05:44:20pm", "schedule_type": "STATIC", "schedule_name": "random_18", "is_biased_choice":true,"side_choice": "LEFT", "trial_number":61,"observed_reward":0,"unobserved_reward":0},{"RT":2683,"time": "2018-08-15 05:44:23pm", "schedule_type": "STATIC", "schedule_name": "random_18", "is_biased_choice":true,"side_choice": "LEFT", "trial_number":62,"observed_reward":0,"unobserved_reward":1},{"RT":2266,"time": "2018-08-15 05:44:25pm", "schedule_type": "STATIC", "schedule_name": "random_18", "is_biased_choice":true,"side_choice": "LEFT", "trial_number":63,"observed_reward":0,"unobserved_reward":1},{"RT":2276,"time": "2018-08-15 05:44:27pm", "schedule_type": "STATIC", "schedule_name": "random_18", "is_biased_choice":true,"side_choice": "LEFT", "trial_number":64,"observed_reward":1,"unobserved_reward":0},{"RT":2165,"time": "2018-08-15 05:44:30pm", "schedule_type": "STATIC", "schedule_name": "random_18", "is_biased_choice":true,"side_choice": "LEFT", "trial_number":65,"observed_reward":0,"unobserved_reward":0},{"RT":2179,"time": "2018-08-15 05:44:32pm", "schedule_type": "STATIC", "schedule_name": "random_18", "is_biased_choice":true,"side_choice": "LEFT", "trial_number":66,"observed_reward":0,"unobserved_reward":0},{"RT":2157,"time": "2018-08-15 05:44:34pm", "schedule_type": "STATIC", "schedule_name": "random_18", "is_biased_choice":true,"side_choice": "LEFT", "trial_number":67,"observed_reward":1,"unobserved_reward":1},{"RT":2187,"time": "2018-08-15 05:44:36pm", "schedule_type": "STATIC", "schedule_name": "random_18", "is_biased_choice":true,"side_choice": "LEFT", "trial_number":68,"observed_reward":0,"unobserved_reward":1},{"RT":2124,"time": "2018-08-15 05:44:38pm", "schedule_type": "STATIC", "schedule_name": "random_18", "is_biased_choice":true,"side_choice": "LEFT", "trial_number":69,"observed_reward":0,"unobserved_reward":0},{"RT":2115,"time": "2018-08-15 05:44:40pm", "schedule_type": "STATIC", "schedule_name": "random_18", "is_biased_choice":true,"side_choice": "LEFT", "trial_number":70,"observed_reward":0,"unobserved_reward":0},{"RT":2125,"time": "2018-08-15 05:44:42pm", "schedule_type": "STATIC", "schedule_name": "random_18", "is_biased_choice":true,"side_choice": "LEFT", "trial_number":71,"observed_reward":0,"unobserved_reward":0},{"RT":2084,"time": "2018-08-15 05:44:44pm", "schedule_type": "STATIC", "schedule_name": "random_18", "is_biased_choice":true,"side_choice": "LEFT", "trial_number":72,"observed_reward":0,"unobserved_reward":0},{"RT":2107,"time": "2018-08-15 05:44:47pm", "schedule_type": "STATIC", "schedule_name": "random_18", "is_biased_choice":true,"side_choice": "LEFT", "trial_number":73,"observed_reward":1,"unobserved_reward":0},{"RT":2117,"time": "2018-08-15 05:44:49pm", "schedule_type": "STATIC", "schedule_name": "random_18", "is_biased_choice":true,"side_choice": "LEFT", "trial_number":74,"observed_reward":0,"unobserved_reward":1},{"RT":2115,"time": "2018-08-15 05:44:51pm", "schedule_type": "STATIC", "schedule_name": "random_18", "is_biased_choice":false,"side_choice": "RIGHT", "trial_number":75,"observed_reward":0,"unobserved_reward":0},{"RT":2220,"time": "2018-08-15 05:44:53pm", "schedule_type": "STATIC", "schedule_name": "random_18", "is_biased_choice":true,"side_choice": "LEFT", "trial_number":76,"observed_reward":0,"unobserved_reward":1},{"RT":2212,"time": "2018-08-15 05:44:55pm", "schedule_type": "STATIC", "schedule_name": "random_18", "is_biased_choice":true,"side_choice": "LEFT", "trial_number":77,"observed_reward":0,"unobserved_reward":0},{"RT":2099,"time": "2018-08-15 05:44:57pm", "schedule_type": "STATIC", "schedule_name": "random_18", "is_biased_choice":true,"side_choice": "LEFT", "trial_number":78,"observed_reward":0,"unobserved_reward":0},{"RT":2269,"time": "2018-08-15 05:45:00pm", "schedule_type": "STATIC", "schedule_name": "random_18", "is_biased_choice":true,"side_choice": "LEFT", "trial_number":79,"observed_reward":0,"unobserved_reward":0},{"RT":2155,"time": "2018-08-15 05:45:02pm", "schedule_type": "STATIC", "schedule_name": "random_18", "is_biased_choice":true,"side_choice": "LEFT", "trial_number":80,"observed_reward":0,"unobserved_reward":0},{"RT":2579,"time": "2018-08-15 05:45:04pm", "schedule_type": "STATIC", "schedule_name": "random_18", "is_biased_choice":true,"side_choice": "LEFT", "trial_number":81,"observed_reward":0,"unobserved_reward":0},{"RT":2092,"time": "2018-08-15 05:45:06pm", "schedule_type": "STATIC", "schedule_name": "random_18", "is_biased_choice":true,"side_choice": "LEFT", "trial_number":82,"observed_reward":0,"unobserved_reward":1},{"RT":2090,"time": "2018-08-15 05:45:09pm", "schedule_type": "STATIC", "schedule_name": "random_18", "is_biased_choice":true,"side_choice": "LEFT", "trial_number":83,"observed_reward":0,"unobserved_reward":0},{"RT":2213,"time": "2018-08-15 05:45:11pm", "schedule_type": "STATIC", "schedule_name": "random_18", "is_biased_choice":true,"side_choice": "LEFT", "trial_number":84,"observed_reward":0,"unobserved_reward":0},{"RT":2092,"time": "2018-08-15 05:45:13pm", "schedule_type": "STATIC", "schedule_name": "random_18", "is_biased_choice":true,"side_choice": "LEFT", "trial_number":85,"observed_reward":1,"unobserved_reward":0},{"RT":2212,"time": "2018-08-15 05:45:15pm", "schedule_type": "STATIC", "schedule_name": "random_18", "is_biased_choice":true,"side_choice": "LEFT", "trial_number":86,"observed_reward":0,"unobserved_reward":1},{"RT":2099,"time": "2018-08-15 05:45:17pm", "schedule_type": "STATIC", "schedule_name": "random_18", "is_biased_choice":true,"side_choice": "LEFT", "trial_number":87,"observed_reward":1,"unobserved_reward":0},{"RT":2309,"time": "2018-08-15 05:45:19pm", "schedule_type": "STATIC", "schedule_name": "random_18", "is_biased_choice":true,"side_choice": "LEFT", "trial_number":88,"observed_reward":0,"unobserved_reward":1},{"RT":2179,"time": "2018-08-15 05:45:22pm", "schedule_type": "STATIC", "schedule_name": "random_18", "is_biased_choice":true,"side_choice": "LEFT", "trial_number":89,"observed_reward":0,"unobserved_reward":0},{"RT":2092,"time": "2018-08-15 05:45:24pm", "schedule_type": "STATIC", "schedule_name": "random_18", "is_biased_choice":true,"side_choice": "LEFT", "trial_number":90,"observed_reward":1,"unobserved_reward":0},{"RT":2219,"time": "2018-08-15 05:45:26pm", "schedule_type": "STATIC", "schedule_name": "random_18", "is_biased_choice":true,"side_choice": "LEFT", "trial_number":91,"observed_reward":0,"unobserved_reward":0},{"RT":2484,"time": "2018-08-15 05:45:28pm", "schedule_type": "STATIC", "schedule_name": "random_18", "is_biased_choice":true,"side_choice": "LEFT", "trial_number":92,"observed_reward":0,"unobserved_reward":0},{"RT":2275,"time": "2018-08-15 05:45:31pm", "schedule_type": "STATIC", "schedule_name": "random_18", "is_biased_choice":true,"side_choice": "LEFT", "trial_number":93,"observed_reward":1,"unobserved_reward":0},{"RT":2292,"time": "2018-08-15 05:45:33pm", "schedule_type": "STATIC", "schedule_name": "random_18", "is_biased_choice":true,"side_choice": "LEFT", "trial_number":94,"observed_reward":1,"unobserved_reward":0},{"RT":2324,"time": "2018-08-15 05:45:35pm", "schedule_type": "STATIC", "schedule_name": "random_18", "is_biased_choice":true,"side_choice": "LEFT", "trial_number":95,"observed_reward":1,"unobserved_reward":0},{"RT":2171,"time": "2018-08-15 05:45:37pm", "schedule_type": "STATIC", "schedule_name": "random_18", "is_biased_choice":true,"side_choice": "LEFT", "trial_number":96,"observed_reward":0,"unobserved_reward":0},{"RT":2196,"time": "2018-08-15 05:45:40pm", "schedule_type": "STATIC", "schedule_name": "random_18", "is_biased_choice":true,"side_choice": "LEFT", "trial_number":97,"observed_reward":0,"unobserved_reward":0},{"RT":2284,"time": "2018-08-15 05:45:42pm", "schedule_type": "STATIC", "schedule_name": "random_18", "is_biased_choice":true,"side_choice": "LEFT", "trial_number":98,"observed_reward":0,"unobserved_reward":0},{"RT":2139,"time": "2018-08-15 05:45:44pm", "schedule_type": "STATIC", "schedule_name": "random_18", "is_biased_choice":true,"side_choice": "LEFT", "trial_number":99,"observed_reward":0,"unobserved_reward":0},