trial_number, time, schedule_type, schedule_name, is_biased_choice, side_choice, RT, observed_reward, unobserved_reward, biased_reward, unbiased_reward
0,2018-08-15 02:43:13pm, STATIC, random_18, true, LEFT, 6538, 1, 1, 1, 1
1,2018-08-15 02:43:16pm, STATIC, random_18, true, LEFT, 3487, 0, 0, 0, 0
2,2018-08-15 02:43:19pm, STATIC, random_18, false, RIGHT, 3113, 0, 0, 0, 0
3,2018-08-15 02:43:22pm, STATIC, random_18, true, LEFT, 2951, 0, 1, 0, 1
4,2018-08-15 02:43:25pm, STATIC, random_18, false, RIGHT, 2848, 0, 0, 0, 0
5,2018-08-15 02:43:32pm, STATIC, random_18, true, LEFT, 6704, 0, 0, 0, 0
6,2018-08-15 02:43:35pm, STATIC, random_18, false, RIGHT, 3472, 0, 1, 1, 0
7,2018-08-15 02:43:38pm, STATIC, random_18, true, LEFT, 2888, 0, 0, 0, 0
8,2018-08-15 02:43:42pm, STATIC, random_18, false, RIGHT, 3560, 0, 1, 1, 0
9,2018-08-15 02:43:45pm, STATIC, random_18, false, RIGHT, 3264, 0, 0, 0, 0
10,2018-08-15 02:43:48pm, STATIC, random_18, false, RIGHT, 3496, 0, 0, 0, 0
11,2018-08-15 02:43:52pm, STATIC, random_18, true, LEFT, 3032, 1, 0, 1, 0
12,2018-08-15 02:43:54pm, STATIC, random_18, true, LEFT, 2792, 0, 0, 0, 0
13,2018-08-15 02:43:57pm, STATIC, random_18, true, LEFT, 2496, 1, 1, 1, 1
14,2018-08-15 02:43:59pm, STATIC, random_18, true, LEFT, 2632, 0, 0, 0, 0
15,2018-08-15 02:44:02pm, STATIC, random_18, false, RIGHT, 2616, 0, 1, 1, 0
16,2018-08-15 02:44:05pm, STATIC, random_18, true, LEFT, 2456, 1, 0, 1, 0
17,2018-08-15 02:44:07pm, STATIC, random_18, false, RIGHT, 2920, 1, 0, 0, 1
18,2018-08-15 02:44:10pm, STATIC, random_18, true, LEFT, 2576, 0, 1, 0, 1
19,2018-08-15 02:44:14pm, STATIC, random_18, false, RIGHT, 3569, 0, 0, 0, 0
20,2018-08-15 02:44:16pm, STATIC, random_18, true, LEFT, 2847, 0, 0, 0, 0
21,2018-08-15 02:44:20pm, STATIC, random_18, true, LEFT, 3568, 0, 0, 0, 0
22,2018-08-15 02:44:23pm, STATIC, random_18, false, RIGHT, 2752, 0, 0, 0, 0
23,2018-08-15 02:44:26pm, STATIC, random_18, true, LEFT, 2976, 0, 0, 0, 0
24,2018-08-15 02:44:29pm, STATIC, random_18, true, LEFT, 3128, 0, 1, 0, 1
25,2018-08-15 02:44:32pm, STATIC, random_18, false, RIGHT, 2759, 0, 0, 0, 0
26,2018-08-15 02:44:34pm, STATIC, random_18, false, RIGHT, 2424, 0, 0, 0, 0
27,2018-08-15 02:44:36pm, STATIC, random_18, true, LEFT, 2416, 1, 1, 1, 1
28,2018-08-15 02:44:39pm, STATIC, random_18, true, LEFT, 2472, 0, 0, 0, 0
29,2018-08-15 02:44:41pm, STATIC, random_18, true, LEFT, 2465, 0, 1, 0, 1
30,2018-08-15 02:44:45pm, STATIC, random_18, false, RIGHT, 3192, 0, 0, 0, 0
31,2018-08-15 02:44:47pm, STATIC, random_18, true, LEFT, 2480, 1, 0, 1, 0
32,2018-08-15 02:44:50pm, STATIC, random_18, false, RIGHT, 2776, 0, 0, 0, 0
33,2018-08-15 02:44:52pm, STATIC, random_18, true, LEFT, 2383, 0, 0, 0, 0
34,2018-08-15 02:44:55pm, STATIC, random_18, false, RIGHT, 2344, 1, 0, 0, 1
35,2018-08-15 02:44:57pm, STATIC, random_18, false, RIGHT, 2648, 0, 0, 0, 0
36,2018-08-15 02:45:00pm, STATIC, random_18, true, LEFT, 2584, 1, 0, 1, 0
37,2018-08-15 02:45:03pm, STATIC, random_18, true, LEFT, 2816, 0, 1, 0, 1
38,2018-08-15 02:45:05pm, STATIC, random_18, true, LEFT, 2729, 0, 0, 0, 0
39,2018-08-15 02:45:08pm, STATIC, random_18, false, RIGHT, 2584, 0, 0, 0, 0
40,2018-08-15 02:45:10pm, STATIC, random_18, true, LEFT, 2415, 0, 0, 0, 0
41,2018-08-15 02:45:13pm, STATIC, random_18, false, RIGHT, 2457, 0, 0, 0, 0
42,2018-08-15 02:45:16pm, STATIC, random_18, true, LEFT, 3159, 0, 0, 0, 0
43,2018-08-15 02:45:19pm, STATIC, random_18, false, RIGHT, 3424, 0, 0, 0, 0
44,2018-08-15 02:45:22pm, STATIC, random_18, true, LEFT, 2728, 0, 0, 0, 0
45,2018-08-15 02:45:25pm, STATIC, random_18, false, RIGHT, 3064, 1, 0, 0, 1
46,2018-08-15 02:45:28pm, STATIC, random_18, false, RIGHT, 2969, 0, 1, 1, 0
47,2018-08-15 02:45:32pm, STATIC, random_18, true, LEFT, 3103, 0, 1, 0, 1
48,2018-08-15 02:45:34pm, STATIC, random_18, false, RIGHT, 2568, 0, 0, 0, 0
49,2018-08-15 02:45:37pm, STATIC, random_18, true, LEFT, 3200, 0, 0, 0, 0
50,2018-08-15 02:45:39pm, STATIC, random_18, false, RIGHT, 2368, 0, 0, 0, 0
51,2018-08-15 02:45:42pm, STATIC, random_18, true, LEFT, 2496, 1, 1, 1, 1
52,2018-08-15 02:45:46pm, STATIC, random_18, true, LEFT, 3064, 0, 0, 0, 0
53,2018-08-15 02:45:47pm, STATIC, random_18, false, RIGHT, 2424, 1, 1, 1, 1
54,2018-08-15 02:45:50pm, STATIC, random_18, true, LEFT, 2920, 1, 0, 1, 0
55,2018-08-15 02:45:53pm, STATIC, random_18, false, RIGHT, 2656, 0, 1, 1, 0
56,2018-08-15 02:45:56pm, STATIC, random_18, true, LEFT, 2648, 0, 1, 0, 1
57,2018-08-15 02:45:58pm, STATIC, random_18, false, RIGHT, 2504, 0, 0, 0, 0
58,2018-08-15 02:46:01pm, STATIC, random_18, true, LEFT, 2631, 0, 1, 0, 1
59,2018-08-15 02:46:03pm, STATIC, random_18, false, RIGHT, 2768, 0, 1, 1, 0
60,2018-08-15 02:46:08pm, STATIC, random_18, true, LEFT, 3849, 0, 0, 0, 0
61,2018-08-15 02:46:12pm, STATIC, random_18, false, RIGHT, 4240, 0, 0, 0, 0
62,2018-08-15 02:46:15pm, STATIC, random_18, true, LEFT, 3256, 0, 1, 0, 1
63,2018-08-15 02:46:19pm, STATIC, random_18, false, RIGHT, 3591, 1, 0, 0, 1
64,2018-08-15 02:46:21pm, STATIC, random_18, true, LEFT, 2752, 1, 0, 1, 0
65,2018-08-15 02:46:24pm, STATIC, random_18, true, LEFT, 2697, 0, 0, 0, 0
66,2018-08-15 02:46:26pm, STATIC, random_18, false, RIGHT, 2295, 0, 0, 0, 0
67,2018-08-15 02:46:31pm, STATIC, random_18, true, LEFT, 4112, 1, 1, 1, 1
68,2018-08-15 02:46:33pm, STATIC, random_18, true, LEFT, 2600, 0, 1, 0, 1
69,2018-08-15 02:46:35pm, STATIC, random_18, true, LEFT, 2440, 0, 0, 0, 0
70,2018-08-15 02:46:39pm, STATIC, random_18, false, RIGHT, 3465, 0, 0, 0, 0
71,2018-08-15 02:46:42pm, STATIC, random_18, true, LEFT, 2887, 0, 0, 0, 0
72,2018-08-15 02:46:44pm, STATIC, random_18, false, RIGHT, 2528, 0, 0, 0, 0
73,2018-08-15 02:46:47pm, STATIC, random_18, true, LEFT, 2592, 1, 0, 1, 0
74,2018-08-15 02:46:49pm, STATIC, random_18, true, LEFT, 2600, 0, 1, 0, 1
75,2018-08-15 02:46:52pm, STATIC, random_18, false, RIGHT, 2728, 0, 0, 0, 0
76,2018-08-15 02:46:56pm, STATIC, random_18, true, LEFT, 3208, 0, 1, 0, 1
77,2018-08-15 02:46:58pm, STATIC, random_18, true, LEFT, 2480, 0, 0, 0, 0
78,2018-08-15 02:47:01pm, STATIC, random_18, false, RIGHT, 2904, 0, 0, 0, 0
79,2018-08-15 02:47:03pm, STATIC, random_18, true, LEFT, 2408, 0, 0, 0, 0
80,2018-08-15 02:47:05pm, STATIC, random_18, false, RIGHT, 2343, 0, 0, 0, 0
81,2018-08-15 02:47:08pm, STATIC, random_18, true, LEFT, 2864, 0, 0, 0, 0
82,2018-08-15 02:47:11pm, STATIC, random_18, false, RIGHT, 2424, 1, 0, 0, 1
83,2018-08-15 02:47:14pm, STATIC, random_18, false, RIGHT, 2944, 0, 0, 0, 0
84,2018-08-15 02:47:16pm, STATIC, random_18, true, LEFT, 2465, 0, 0, 0, 0
85,2018-08-15 02:47:19pm, STATIC, random_18, true, LEFT, 2656, 1, 0, 1, 0
86,2018-08-15 02:47:22pm, STATIC, random_18, false, RIGHT, 3232, 1, 0, 0, 1
87,2018-08-15 02:47:26pm, STATIC, random_18, true, LEFT, 4015, 1, 0, 1, 0
88,2018-08-15 02:47:29pm, STATIC, random_18, false, RIGHT, 2592, 1, 0, 0, 1
89,2018-08-15 02:47:31pm, STATIC, random_18, true, LEFT, 2425, 0, 0, 0, 0
90,2018-08-15 02:47:33pm, STATIC, random_18, false, RIGHT, 2375, 0, 1, 1, 0
91,2018-08-15 02:47:36pm, STATIC, random_18, true, LEFT, 2440, 0, 0, 0, 0
92,2018-08-15 02:47:38pm, STATIC, random_18, true, LEFT, 2265, 0, 0, 0, 0
93,2018-08-15 02:47:40pm, STATIC, random_18, true, LEFT, 2144, 1, 0, 1, 0
94,2018-08-15 02:47:43pm, STATIC, random_18, true, LEFT, 2663, 1, 0, 1, 0
95,2018-08-15 02:47:45pm, STATIC, random_18, false, RIGHT, 2393, 0, 1, 1, 0
96,2018-08-15 02:47:48pm, STATIC, random_18, true, LEFT, 2375, 0, 0, 0, 0
97,2018-08-15 02:47:51pm, STATIC, random_18, false, RIGHT, 2912, 0, 0, 0, 0
98,2018-08-15 02:47:53pm, STATIC, random_18, false, RIGHT, 2544, 0, 0, 0, 0
99,2018-08-15 02:47:56pm, STATIC, random_18, true, LEFT, 2528, 0, 0, 0, 0
