trial_number, time, schedule_type, schedule_name, is_biased_choice, side_choice, RT, observed_reward, unobserved_reward, biased_reward, unbiased_reward
0,2018-08-15 01:42:59pm, STATIC, random_18, false, LEFT, 2002, 1, 1, 1, 1
1,2018-08-15 01:43:03pm, STATIC, random_18, false, LEFT, 4066, 0, 0, 0, 0
2,2018-08-15 01:43:07pm, STATIC, random_18, true, RIGHT, 4202, 0, 0, 0, 0
3,2018-08-15 01:43:11pm, STATIC, random_18, false, LEFT, 3881, 1, 0, 0, 1
4,2018-08-15 01:43:15pm, STATIC, random_18, true, RIGHT, 4020, 0, 0, 0, 0
5,2018-08-15 01:43:19pm, STATIC, random_18, false, LEFT, 3393, 0, 0, 0, 0
6,2018-08-15 01:43:22pm, STATIC, random_18, true, RIGHT, 3695, 1, 0, 1, 0
7,2018-08-15 01:43:27pm, STATIC, random_18, false, LEFT, 4613, 0, 0, 0, 0
8,2018-08-15 01:43:30pm, STATIC, random_18, true, RIGHT, 3460, 1, 0, 1, 0
9,2018-08-15 01:43:34pm, STATIC, random_18, false, LEFT, 3766, 0, 0, 0, 0
10,2018-08-15 01:43:38pm, STATIC, random_18, true, RIGHT, 3836, 0, 0, 0, 0
11,2018-08-15 01:43:41pm, STATIC, random_18, false, LEFT, 3434, 0, 1, 1, 0
12,2018-08-15 01:43:45pm, STATIC, random_18, true, RIGHT, 3311, 0, 0, 0, 0
13,2018-08-15 01:43:48pm, STATIC, random_18, false, LEFT, 3432, 1, 1, 1, 1
14,2018-08-15 01:43:52pm, STATIC, random_18, true, RIGHT, 4199, 0, 0, 0, 0
15,2018-08-15 01:43:57pm, STATIC, random_18, false, LEFT, 4455, 0, 1, 1, 0
16,2018-08-15 01:44:00pm, STATIC, random_18, true, RIGHT, 3215, 1, 0, 1, 0
17,2018-08-15 01:44:05pm, STATIC, random_18, false, LEFT, 5350, 1, 0, 0, 1
18,2018-08-15 01:44:09pm, STATIC, random_18, true, RIGHT, 3711, 0, 1, 0, 1
19,2018-08-15 01:44:13pm, STATIC, random_18, false, LEFT, 3747, 0, 0, 0, 0
20,2018-08-15 01:44:16pm, STATIC, random_18, true, RIGHT, 3290, 0, 0, 0, 0
21,2018-08-15 01:44:19pm, STATIC, random_18, false, LEFT, 3221, 0, 0, 0, 0
22,2018-08-15 01:44:24pm, STATIC, random_18, true, RIGHT, 3141, 0, 0, 0, 0
23,2018-08-15 01:44:26pm, STATIC, random_18, false, LEFT, 3751, 0, 0, 0, 0
24,2018-08-15 01:44:29pm, STATIC, random_18, true, RIGHT, 3019, 0, 1, 0, 1
25,2018-08-15 01:44:32pm, STATIC, random_18, false, LEFT, 3108, 0, 0, 0, 0
26,2018-08-15 01:44:36pm, STATIC, random_18, false, LEFT, 3200, 0, 0, 0, 0
27,2018-08-15 01:44:39pm, STATIC, random_18, true, RIGHT, 3160, 1, 1, 1, 1
28,2018-08-15 01:44:43pm, STATIC, random_18, true, RIGHT, 4331, 0, 0, 0, 0
29,2018-08-15 01:44:46pm, STATIC, random_18, false, LEFT, 3000, 1, 0, 0, 1
30,2018-08-15 01:44:49pm, STATIC, random_18, true, RIGHT, 3191, 0, 0, 0, 0
31,2018-08-15 01:44:53pm, STATIC, random_18, false, LEFT, 3300, 0, 1, 1, 0
32,2018-08-15 01:44:56pm, STATIC, random_18, true, RIGHT, 3234, 0, 0, 0, 0
33,2018-08-15 01:45:01pm, STATIC, random_18, false, LEFT, 4786, 0, 0, 0, 0
34,2018-08-15 01:45:04pm, STATIC, random_18, true, RIGHT, 3824, 0, 1, 0, 1
35,2018-08-15 01:45:07pm, STATIC, random_18, false, LEFT, 3070, 0, 0, 0, 0
36,2018-08-15 01:45:12pm, STATIC, random_18, true, RIGHT, 4906, 1, 0, 1, 0
37,2018-08-15 01:45:16pm, STATIC, random_18, false, LEFT, 3663, 1, 0, 0, 1
38,2018-08-15 01:45:20pm, STATIC, random_18, false, LEFT, 3768, 0, 0, 0, 0
39,2018-08-15 01:45:25pm, STATIC, random_18, false, LEFT, 4198, 0, 0, 0, 0
40,2018-08-15 01:45:28pm, STATIC, random_18, true, RIGHT, 4011, 0, 0, 0, 0
41,2018-08-15 01:45:32pm, STATIC, random_18, false, LEFT, 3639, 0, 0, 0, 0
42,2018-08-15 01:45:35pm, STATIC, random_18, true, RIGHT, 3199, 0, 0, 0, 0
43,2018-08-15 01:45:39pm, STATIC, random_18, false, LEFT, 3882, 0, 0, 0, 0
44,2018-08-15 01:45:42pm, STATIC, random_18, true, RIGHT, 3105, 0, 0, 0, 0
45,2018-08-15 01:45:45pm, STATIC, random_18, true, RIGHT, 3124, 0, 1, 0, 1
46,2018-08-15 01:45:48pm, STATIC, random_18, false, LEFT, 3090, 0, 1, 1, 0
47,2018-08-15 01:45:51pm, STATIC, random_18, true, RIGHT, 3130, 0, 1, 0, 1
48,2018-08-15 01:45:54pm, STATIC, random_18, true, RIGHT, 3240, 0, 0, 0, 0
49,2018-08-15 01:45:58pm, STATIC, random_18, false, LEFT, 3461, 0, 0, 0, 0
50,2018-08-15 01:46:01pm, STATIC, random_18, false, LEFT, 3169, 0, 0, 0, 0
51,2018-08-15 01:46:04pm, STATIC, random_18, true, RIGHT, 3380, 1, 1, 1, 1
52,2018-08-15 01:46:15pm, STATIC, random_18, false, LEFT, 10406, 0, 0, 0, 0
53,2018-08-15 01:46:20pm, STATIC, random_18, true, RIGHT, 5134, 1, 1, 1, 1
54,2018-08-15 01:46:23pm, STATIC, random_18, true, RIGHT, 3231, 1, 0, 1, 0
55,2018-08-15 01:46:27pm, STATIC, random_18, true, RIGHT, 3371, 1, 0, 1, 0
56,2018-08-15 01:46:30pm, STATIC, random_18, true, RIGHT, 3295, 0, 1, 0, 1
57,2018-08-15 01:46:33pm, STATIC, random_18, false, LEFT, 3191, 0, 0, 0, 0
58,2018-08-15 01:46:36pm, STATIC, random_18, false, LEFT, 3112, 1, 0, 0, 1
59,2018-08-15 01:46:39pm, STATIC, random_18, true, RIGHT, 3335, 1, 0, 1, 0
60,2018-08-15 01:46:43pm, STATIC, random_18, true, RIGHT, 3279, 0, 0, 0, 0
61,2018-08-15 01:46:46pm, STATIC, random_18, true, RIGHT, 3092, 0, 0, 0, 0
62,2018-08-15 01:46:49pm, STATIC, random_18, false, LEFT, 3026, 1, 0, 0, 1
63,2018-08-15 01:46:52pm, STATIC, random_18, false, LEFT, 3203, 1, 0, 0, 1
64,2018-08-15 01:46:55pm, STATIC, random_18, true, RIGHT, 3145, 1, 0, 1, 0
65,2018-08-15 01:46:58pm, STATIC, random_18, true, RIGHT, 3191, 0, 0, 0, 0
66,2018-08-15 01:47:02pm, STATIC, random_18, false, LEFT, 3232, 0, 0, 0, 0
67,2018-08-15 01:47:07pm, STATIC, random_18, true, RIGHT, 4947, 1, 1, 1, 1
68,2018-08-15 01:47:10pm, STATIC, random_18, true, RIGHT, 3270, 0, 1, 0, 1
69,2018-08-15 01:47:13pm, STATIC, random_18, true, RIGHT, 3254, 0, 0, 0, 0
70,2018-08-15 01:47:16pm, STATIC, random_18, false, LEFT, 3238, 0, 0, 0, 0
71,2018-08-15 01:47:20pm, STATIC, random_18, true, RIGHT, 3293, 0, 0, 0, 0
72,2018-08-15 01:47:23pm, STATIC, random_18, false, LEFT, 3216, 0, 0, 0, 0
73,2018-08-15 01:47:27pm, STATIC, random_18, true, RIGHT, 3049, 1, 0, 1, 0
74,2018-08-15 01:47:31pm, STATIC, random_18, true, RIGHT, 4535, 0, 1, 0, 1
75,2018-08-15 01:47:34pm, STATIC, random_18, false, LEFT, 3782, 0, 0, 0, 0
76,2018-08-15 01:47:39pm, STATIC, random_18, true, RIGHT, 4617, 0, 1, 0, 1
77,2018-08-15 01:47:42pm, STATIC, random_18, true, RIGHT, 3132, 0, 0, 0, 0
78,2018-08-15 01:47:46pm, STATIC, random_18, false, LEFT, 4031, 0, 0, 0, 0
79,2018-08-15 01:47:49pm, STATIC, random_18, false, LEFT, 3336, 0, 0, 0, 0
80,2018-08-15 01:47:52pm, STATIC, random_18, true, RIGHT, 3055, 0, 0, 0, 0
81,2018-08-15 01:47:56pm, STATIC, random_18, false, LEFT, 3562, 0, 0, 0, 0
82,2018-08-15 01:48:00pm, STATIC, random_18, false, LEFT, 3711, 1, 0, 0, 1
83,2018-08-15 01:48:03pm, STATIC, random_18, true, RIGHT, 3349, 0, 0, 0, 0
84,2018-08-15 01:48:06pm, STATIC, random_18, false, LEFT, 3140, 0, 0, 0, 0
85,2018-08-15 01:48:10pm, STATIC, random_18, false, LEFT, 3383, 0, 1, 1, 0
86,2018-08-15 01:48:13pm, STATIC, random_18, true, RIGHT, 3409, 0, 1, 0, 1
87,2018-08-15 01:48:19pm, STATIC, random_18, false, LEFT, 6282, 0, 1, 1, 0
88,2018-08-15 01:48:25pm, STATIC, random_18, true, RIGHT, 5618, 0, 1, 0, 1
89,2018-08-15 01:48:30pm, STATIC, random_18, false, LEFT, 5328, 0, 0, 0, 0
90,2018-08-15 01:48:35pm, STATIC, random_18, true, RIGHT, 4821, 1, 0, 1, 0
91,2018-08-15 01:48:40pm, STATIC, random_18, true, RIGHT, 5138, 0, 0, 0, 0
92,2018-08-15 01:48:44pm, STATIC, random_18, false, LEFT, 3512, 0, 0, 0, 0
93,2018-08-15 01:48:48pm, STATIC, random_18, true, RIGHT, 4073, 1, 0, 1, 0
94,2018-08-15 01:48:52pm, STATIC, random_18, false, LEFT, 4468, 0, 1, 1, 0
95,2018-08-15 01:48:55pm, STATIC, random_18, true, RIGHT, 3270, 1, 0, 1, 0
96,2018-08-15 01:48:59pm, STATIC, random_18, true, RIGHT, 3286, 0, 0, 0, 0
97,2018-08-15 01:49:09pm, STATIC, random_18, true, RIGHT, 10643, 0, 0, 0, 0
98,2018-08-15 01:49:14pm, STATIC, random_18, false, LEFT, 4248, 0, 0, 0, 0
