[{"RT":6704,"time": "2018-08-15 03:32:04pm", "schedule_type": "STATIC", "schedule_name": "random_18", "is_biased_choice":true,"side_choice": "RIGHT", "trial_number":0,"observed_reward":1,"unobserved_reward":1},{"RT":11127,"time": "2018-08-15 03:32:16pm", "schedule_type": "STATIC", "schedule_name": "random_18", "is_biased_choice":false,"side_choice": "LEFT", "trial_number":1,"observed_reward":0,"unobserved_reward":0},{"RT":5157,"time": "2018-08-15 03:32:20pm", "schedule_type": "STATIC", "schedule_name": "random_18", "is_biased_choice":true,"side_choice": "RIGHT", "trial_number":2,"observed_reward":0,"unobserved_reward":0},{"RT":4656,"time": "2018-08-15 03:32:25pm", "schedule_type": "STATIC", "schedule_name": "random_18", "is_biased_choice":true,"side_choice": "RIGHT", "trial_number":3,"observed_reward":0,"unobserved_reward":1},{"RT":3353,"time": "2018-08-15 03:32:30pm", "schedule_type": "STATIC", "schedule_name": "random_18", "is_biased_choice":false,"side_choice": "LEFT", "trial_number":4,"observed_reward":0,"unobserved_reward":0},{"RT":3279,"time": "2018-08-15 03:32:34pm", "schedule_type": "STATIC", "schedule_name": "random_18", "is_biased_choice":true,"side_choice": "RIGHT", "trial_number":5,"observed_reward":0,"unobserved_reward":0},{"RT":4118,"time": "2018-08-15 03:32:36pm", "schedule_type": "STATIC", "schedule_name": "random_18", "is_biased_choice":false,"side_choice": "LEFT", "trial_number":6,"observed_reward":0,"unobserved_reward":1},{"RT":4001,"time": "2018-08-15 03:32:40pm", "schedule_type": "STATIC", "schedule_name": "random_18", "is_biased_choice":true,"side_choice": "RIGHT", "trial_number":7,"observed_reward":0,"unobserved_reward":0},{"RT":2935,"time": "2018-08-15 03:32:43pm", "schedule_type": "STATIC", "schedule_name": "random_18", "is_biased_choice":true,"side_choice": "RIGHT", "trial_number":8,"observed_reward":1,"unobserved_reward":0},{"RT":3159,"time": "2018-08-15 03:32:46pm", "schedule_type": "STATIC", "schedule_name": "random_18", "is_biased_choice":true,"side_choice": "RIGHT", "trial_number":9,"observed_reward":0,"unobserved_reward":0},{"RT":3015,"time": "2018-08-15 03:32:49pm", "schedule_type": "STATIC", "schedule_name": "random_18", "is_biased_choice":false,"side_choice": "LEFT", "trial_number":10,"observed_reward":0,"unobserved_reward":0},{"RT":2905,"time": "2018-08-15 03:32:52pm", "schedule_type": "STATIC", "schedule_name": "random_18", "is_biased_choice":true,"side_choice": "RIGHT", "trial_number":11,"observed_reward":1,"unobserved_reward":0},{"RT":2695,"time": "2018-08-15 03:32:58pm", "schedule_type": "STATIC", "schedule_name": "random_18", "is_biased_choice":true,"side_choice": "RIGHT", "trial_number":12,"observed_reward":0,"unobserved_reward":0},{"RT":3127,"time": "2018-08-15 03:32:58pm", "schedule_type": "STATIC", "schedule_name": "random_18", "is_biased_choice":true,"side_choice": "RIGHT", "trial_number":13,"observed_reward":1,"unobserved_reward":1},{"RT":3585,"time": "2018-08-15 03:33:01pm", "schedule_type": "STATIC", "schedule_name": "random_18", "is_biased_choice":true,"side_choice": "RIGHT", "trial_number":14,"observed_reward":0,"unobserved_reward":0},{"RT":3128,"time": "2018-08-15 03:33:05pm", "schedule_type": "STATIC", "schedule_name": "random_18", "is_biased_choice":false,"side_choice": "LEFT", "trial_number":15,"observed_reward":0,"unobserved_reward":1},{"RT":2615,"time": "2018-08-15 03:33:07pm", "schedule_type": "STATIC", "schedule_name": "random_18", "is_biased_choice":true,"side_choice": "RIGHT", "trial_number":16,"observed_reward":1,"unobserved_reward":0},{"RT":3063,"time": "2018-08-15 03:33:12pm", "schedule_type": "STATIC", "schedule_name": "random_18", "is_biased_choice":true,"side_choice": "RIGHT", "trial_number":17,"observed_reward":0,"unobserved_reward":1},{"RT":3263,"time": "2018-08-15 03:33:13pm", "schedule_type": "STATIC", "schedule_name": "random_18", "is_biased_choice":true,"side_choice": "RIGHT", "trial_number":18,"observed_reward":0,"unobserved_reward":1},{"RT":2913,"time": "2018-08-15 03:33:16pm", "schedule_type": "STATIC", "schedule_name": "random_18", "is_biased_choice":true,"side_choice": "RIGHT", "trial_number":19,"observed_reward":0,"unobserved_reward":0},{"RT":2528,"time": "2018-08-15 03:33:19pm", "schedule_type": "STATIC", "schedule_name": "random_18", "is_biased_choice":true,"side_choice": "RIGHT", "trial_number":20,"observed_reward":0,"unobserved_reward":0},{"RT":2640,"time": "2018-08-15 03:33:21pm", "schedule_type": "STATIC", "schedule_name": "random_18", "is_biased_choice":false,"side_choice": "LEFT", "trial_number":21,"observed_reward":0,"unobserved_reward":0},{"RT":2655,"time": "2018-08-15 03:33:24pm", "schedule_type": "STATIC", "schedule_name": "random_18", "is_biased_choice":true,"side_choice": "RIGHT", "trial_number":22,"observed_reward":0,"unobserved_reward":0},{"RT":2703,"time": "2018-08-15 03:33:27pm", "schedule_type": "STATIC", "schedule_name": "random_18", "is_biased_choice":true,"side_choice": "RIGHT", "trial_number":23,"observed_reward":0,"unobserved_reward":0},{"RT":2688,"time": "2018-08-15 03:33:29pm", "schedule_type": "STATIC", "schedule_name": "random_18", "is_biased_choice":false,"side_choice": "LEFT", "trial_number":24,"observed_reward":1,"unobserved_reward":0},{"RT":2783,"time": "2018-08-15 03:33:32pm", "schedule_type": "STATIC", "schedule_name": "random_18", "is_biased_choice":true,"side_choice": "RIGHT", "trial_number":25,"observed_reward":0,"unobserved_reward":0},{"RT":2704,"time": "2018-08-15 03:33:35pm", "schedule_type": "STATIC", "schedule_name": "random_18", "is_biased_choice":false,"side_choice": "LEFT", "trial_number":26,"observed_reward":0,"unobserved_reward":0},{"RT":2520,"time": "2018-08-15 03:33:37pm", "schedule_type": "STATIC", "schedule_name": "random_18", "is_biased_choice":true,"side_choice": "RIGHT", "trial_number":27,"observed_reward":1,"unobserved_reward":1},{"RT":3055,"time": "2018-08-15 03:33:41pm", "schedule_type": "STATIC", "schedule_name": "random_18", "is_biased_choice":true,"side_choice": "RIGHT", "trial_number":28,"observed_reward":0,"unobserved_reward":0},{"RT":2629,"time": "2018-08-15 03:33:46pm", "schedule_type": "STATIC", "schedule_name": "random_18", "is_biased_choice":true,"side_choice": "RIGHT", "trial_number":29,"observed_reward":0,"unobserved_reward":1},{"RT":2729,"time": "2018-08-15 03:33:46pm", "schedule_type": "STATIC", "schedule_name": "random_18", "is_biased_choice":true,"side_choice": "RIGHT", "trial_number":30,"observed_reward":0,"unobserved_reward":0},{"RT":2569,"time": "2018-08-15 03:33:48pm", "schedule_type": "STATIC", "schedule_name": "random_18", "is_biased_choice":true,"side_choice": "RIGHT", "trial_number":31,"observed_reward":1,"unobserved_reward":0},{"RT":2720,"time": "2018-08-15 03:33:51pm", "schedule_type": "STATIC", "schedule_name": "random_18", "is_biased_choice":true,"side_choice": "RIGHT", "trial_number":32,"observed_reward":0,"unobserved_reward":0},{"RT":2496,"time": "2018-08-15 03:33:54pm", "schedule_type": "STATIC", "schedule_name": "random_18", "is_biased_choice":true,"side_choice": "RIGHT", "trial_number":33,"observed_reward":0,"unobserved_reward":0},{"RT":2458,"time": "2018-08-15 03:33:56pm", "schedule_type": "STATIC", "schedule_name": "random_18", "is_biased_choice":true,"side_choice": "RIGHT", "trial_number":34,"observed_reward":0,"unobserved_reward":1},{"RT":2557,"time": "2018-08-15 03:33:59pm", "schedule_type": "STATIC", "schedule_name": "random_18", "is_biased_choice":false,"side_choice": "LEFT", "trial_number":35,"observed_reward":0,"unobserved_reward":0},{"RT":2399,"time": "2018-08-15 03:34:01pm", "schedule_type": "STATIC", "schedule_name": "random_18", "is_biased_choice":true,"side_choice": "RIGHT", "trial_number":36,"observed_reward":1,"unobserved_reward":0},{"RT":2527,"time": "2018-08-15 03:34:04pm", "schedule_type": "STATIC", "schedule_name": "random_18", "is_biased_choice":true,"side_choice": "RIGHT", "trial_number":37,"observed_reward":0,"unobserved_reward":1},{"RT":2984,"time": "2018-08-15 03:34:07pm", "schedule_type": "STATIC", "schedule_name": "random_18", "is_biased_choice":true,"side_choice": "RIGHT", "trial_number":38,"observed_reward":0,"unobserved_reward":0},{"RT":2352,"time": "2018-08-15 03:34:09pm", "schedule_type": "STATIC", "schedule_name": "random_18", "is_biased_choice":true,"side_choice": "RIGHT", "trial_number":39,"observed_reward":0,"unobserved_reward":0},{"RT":2344,"time": "2018-08-15 03:34:11pm", "schedule_type": "STATIC", "schedule_name": "random_18", "is_biased_choice":true,"side_choice": "RIGHT", "trial_number":40,"observed_reward":0,"unobserved_reward":0},{"RT":2552,"time": "2018-08-15 03:34:14pm", "schedule_type": "STATIC", "schedule_name": "random_18", "is_biased_choice":true,"side_choice": "RIGHT", "trial_number":41,"observed_reward":0,"unobserved_reward":0},{"RT":3535,"time": "2018-08-15 03:34:18pm", "schedule_type": "STATIC", "schedule_name": "random_18", "is_biased_choice":true,"side_choice": "RIGHT", "trial_number":42,"observed_reward":0,"unobserved_reward":0},{"RT":2751,"time": "2018-08-15 03:34:20pm", "schedule_type": "STATIC", "schedule_name": "random_18", "is_biased_choice":true,"side_choice": "RIGHT", "trial_number":43,"observed_reward":0,"unobserved_reward":0},{"RT":2504,"time": "2018-08-15 03:34:23pm", "schedule_type": "STATIC", "schedule_name": "random_18", "is_biased_choice":true,"side_choice": "RIGHT", "trial_number":44,"observed_reward":0,"unobserved_reward":0},{"RT":2248,"time": "2018-08-15 03:34:25pm", "schedule_type": "STATIC", "schedule_name": "random_18", "is_biased_choice":true,"side_choice": "RIGHT", "trial_number":45,"observed_reward":0,"unobserved_reward":1},{"RT":2815,"time": "2018-08-15 03:34:28pm", "schedule_type": "STATIC", "schedule_name": "random_18", "is_biased_choice":false,"side_choice": "LEFT", "trial_number":46,"observed_reward":0,"unobserved_reward":1},{"RT":2409,"time": "2018-08-15 03:34:30pm", "schedule_type": "STATIC", "schedule_name": "random_18", "is_biased_choice":true,"side_choice": "RIGHT", "trial_number":47,"observed_reward":0,"unobserved_reward":1},{"RT":2743,"time": "2018-08-15 03:34:33pm", "schedule_type": "STATIC", "schedule_name": "random_18", "is_biased_choice":true,"side_choice": "RIGHT", "trial_number":48,"observed_reward":0,"unobserved_reward":0},{"RT":2591,"time": "2018-08-15 03:34:35pm", "schedule_type": "STATIC", "schedule_name": "random_18", "is_biased_choice":false,"side_choice": "LEFT", "trial_number":49,"observed_reward":0,"unobserved_reward":0},{"RT":2368,"time": "2018-08-15 03:34:38pm", "schedule_type": "STATIC", "schedule_name": "random_18", "is_biased_choice":true,"side_choice": "RIGHT", "trial_number":50,"observed_reward":0,"unobserved_reward":0},{"RT":2376,"time": "2018-08-15 03:34:40pm", "schedule_type": "STATIC", "schedule_name": "random_18", "is_biased_choice":true,"side_choice": "RIGHT", "trial_number":51,"observed_reward":1,"unobserved_reward":1},{"RT":2783,"time": "2018-08-15 03:34:43pm", "schedule_type": "STATIC", "schedule_name": "random_18", "is_biased_choice":true,"side_choice": "RIGHT", "trial_number":52,"observed_reward":0,"unobserved_reward":0},{"RT":3184,"time": "2018-08-15 03:34:47pm", "schedule_type": "STATIC", "schedule_name": "random_18", "is_biased_choice":true,"side_choice": "RIGHT", "trial_number":53,"observed_reward":1,"unobserved_reward":1},{"RT":2720,"time": "2018-08-15 03:34:49pm", "schedule_type": "STATIC", "schedule_name": "random_18", "is_biased_choice":true,"side_choice": "RIGHT", "trial_number":54,"observed_reward":1,"unobserved_reward":0},{"RT":2431,"time": "2018-08-15 03:34:51pm", "schedule_type": "STATIC", "schedule_name": "random_18", "is_biased_choice":true,"side_choice": "RIGHT", "trial_number":55,"observed_reward":1,"unobserved_reward":0},{"RT":2416,"time": "2018-08-15 03:34:54pm", "schedule_type": "STATIC", "schedule_name": "random_18", "is_biased_choice":true,"side_choice": "RIGHT", "trial_number":56,"observed_reward":0,"unobserved_reward":1},{"RT":2401,"time": "2018-08-15 03:34:56pm", "schedule_type": "STATIC", "schedule_name": "random_18", "is_biased_choice":false,"side_choice": "LEFT", "trial_number":57,"observed_reward":0,"unobserved_reward":0},{"RT":2278,"time": "2018-08-15 03:34:58pm", "schedule_type": "STATIC", "schedule_name": "random_18", "is_biased_choice":true,"side_choice": "RIGHT", "trial_number":58,"observed_reward":0,"unobserved_reward":1},{"RT":2472,"time": "2018-08-15 03:35:01pm", "schedule_type": "STATIC", "schedule_name": "random_18", "is_biased_choice":true,"side_choice": "RIGHT", "trial_number":59,"observed_reward":1,"unobserved_reward":0},{"RT":2640,"time": "2018-08-15 03:35:04pm", "schedule_type": "STATIC", "schedule_name": "random_18", "is_biased_choice":true,"side_choice": "RIGHT", "trial_number":60,"observed_reward":0,"unobserved_reward":0},{"RT":2455,"time": "2018-08-15 03:35:06pm", "schedule_type": "STATIC", "schedule_name": "random_18", "is_biased_choice":true,"side_choice": "RIGHT", "trial_number":61,"observed_reward":0,"unobserved_reward":0},{"RT":2440,"time": "2018-08-15 03:35:08pm", "schedule_type": "STATIC", "schedule_name": "random_18", "is_biased_choice":false,"side_choice": "LEFT", "trial_number":62,"observed_reward":1,"unobserved_reward":0},{"RT":2512,"time": "2018-08-15 03:35:11pm", "schedule_type": "STATIC", "schedule_name": "random_18", "is_biased_choice":true,"side_choice": "RIGHT", "trial_number":63,"observed_reward":0,"unobserved_reward":1},{"RT":2527,"time": "2018-08-15 03:35:13pm", "schedule_type": "STATIC", "schedule_name": "random_18", "is_biased_choice":false,"side_choice": "LEFT", "trial_number":64,"observed_reward":0,"unobserved_reward":1},{"RT":2432,"time": "2018-08-15 03:35:16pm", "schedule_type": "STATIC", "schedule_name": "random_18", "is_biased_choice":true,"side_choice": "RIGHT", "trial_number":65,"observed_reward":0,"unobserved_reward":0},{"RT":2448,"time": "2018-08-15 03:35:18pm", "schedule_type": "STATIC", "schedule_name": "random_18", "is_biased_choice":false,"side_choice": "LEFT", "trial_number":66,"observed_reward":0,"unobserved_reward":0},{"RT":2695,"time": "2018-08-15 03:35:21pm", "schedule_type": "STATIC", "schedule_name": "random_18", "is_biased_choice":false,"side_choice": "LEFT", "trial_number":67,"observed_reward":1,"unobserved_reward":1},{"RT":2816,"time": "2018-08-15 03:35:24pm", "schedule_type": "STATIC", "schedule_name": "random_18", "is_biased_choice":false,"side_choice": "LEFT", "trial_number":68,"observed_reward":1,"unobserved_reward":0},{"RT":2448,"time": "2018-08-15 03:35:26pm", "schedule_type": "STATIC", "schedule_name": "random_18", "is_biased_choice":true,"side_choice": "RIGHT", "trial_number":69,"observed_reward":0,"unobserved_reward":0},{"RT":2511,"time": "2018-08-15 03:35:29pm", "schedule_type": "STATIC", "schedule_name": "random_18", "is_biased_choice":false,"side_choice": "LEFT", "trial_number":70,"observed_reward":0,"unobserved_reward":0},{"RT":2384,"time": "2018-08-15 03:35:31pm", "schedule_type": "STATIC", "schedule_name": "random_18", "is_biased_choice":true,"side_choice": "RIGHT", "trial_number":71,"observed_reward":0,"unobserved_reward":0},{"RT":2319,"time": "2018-08-15 03:35:33pm", "schedule_type": "STATIC", "schedule_name": "random_18", "is_biased_choice":true,"side_choice": "RIGHT", "trial_number":72,"observed_reward":0,"unobserved_reward":0},{"RT":2328,"time": "2018-08-15 03:35:36pm", "schedule_type": "STATIC", "schedule_name": "random_18", "is_biased_choice":true,"side_choice": "RIGHT", "trial_number":73,"observed_reward":1,"unobserved_reward":0},{"RT":2400,"time": "2018-08-15 03:35:38pm", "schedule_type": "STATIC", "schedule_name": "random_18", "is_biased_choice":true,"side_choice": "RIGHT", "trial_number":74,"observed_reward":0,"unobserved_reward":1},{"RT":2392,"time": "2018-08-15 03:35:41pm", "schedule_type": "STATIC", "schedule_name": "random_18", "is_biased_choice":false,"side_choice": "LEFT", "trial_number":75,"observed_reward":0,"unobserved_reward":0},{"RT":2375,"time": "2018-08-15 03:35:43pm", "schedule_type": "STATIC", "schedule_name": "random_18", "is_biased_choice":true,"side_choice": "RIGHT", "trial_number":76,"observed_reward":0,"unobserved_reward":1},{"RT":2272,"time": "2018-08-15 03:35:45pm", "schedule_type": "STATIC", "schedule_name": "random_18", "is_biased_choice":false,"side_choice": "LEFT", "trial_number":77,"observed_reward":0,"unobserved_reward":0},{"RT":2216,"time": "2018-08-15 03:35:47pm", "schedule_type": "STATIC", "schedule_name": "random_18", "is_biased_choice":true,"side_choice": "RIGHT", "trial_number":78,"observed_reward":0,"unobserved_reward":0},{"RT":2463,"time": "2018-08-15 03:35:50pm", "schedule_type": "STATIC", "schedule_name": "random_18", "is_biased_choice":true,"side_choice": "RIGHT", "trial_number":79,"observed_reward":0,"unobserved_reward":0},{"RT":2368,"time": "2018-08-15 03:35:52pm", "schedule_type": "STATIC", "schedule_name": "random_18", "is_biased_choice":false,"side_choice": "LEFT", "trial_number":80,"observed_reward":0,"unobserved_reward":0},{"RT":2168,"time": "2018-08-15 03:35:54pm", "schedule_type": "STATIC", "schedule_name": "random_18", "is_biased_choice":true,"side_choice": "RIGHT", "trial_number":81,"observed_reward":0,"unobserved_reward":0},{"RT":2232,"time": "2018-08-15 03:35:57pm", "schedule_type": "STATIC", "schedule_name": "random_18", "is_biased_choice":true,"side_choice": "RIGHT", "trial_number":82,"observed_reward":0,"unobserved_reward":1},{"RT":2279,"time": "2018-08-15 03:35:59pm", "schedule_type": "STATIC", "schedule_name": "random_18", "is_biased_choice":true,"side_choice": "RIGHT", "trial_number":83,"observed_reward":0,"unobserved_reward":0},{"RT":2360,"time": "2018-08-15 03:36:01pm", "schedule_type": "STATIC", "schedule_name": "random_18", "is_biased_choice":true,"side_choice": "RIGHT", "trial_number":84,"observed_reward":0,"unobserved_reward":0},{"RT":2815,"time": "2018-08-15 03:36:04pm", "schedule_type": "STATIC", "schedule_name": "random_18", "is_biased_choice":false,"side_choice": "LEFT", "trial_number":85,"observed_reward":0,"unobserved_reward":1},{"RT":2600,"time": "2018-08-15 03:36:08pm", "schedule_type": "STATIC", "schedule_name": "random_18", "is_biased_choice":true,"side_choice": "RIGHT", "trial_number":86,"observed_reward":0,"unobserved_reward":1},{"RT":2656,"time": "2018-08-15 03:36:09pm", "schedule_type": "STATIC", "schedule_name": "random_18", "is_biased_choice":false,"side_choice": "LEFT", "trial_number":87,"observed_reward":0,"unobserved_reward":1},{"RT":2559,"time": "2018-08-15 03:36:12pm", "schedule_type": "STATIC", "schedule_name": "random_18", "is_biased_choice":true,"side_choice": "RIGHT", "trial_number":88,"observed_reward":0,"unobserved_reward":1},{"RT":2264,"time": "2018-08-15 03:36:14pm", "schedule_type": "STATIC", "schedule_name": "random_18", "is_biased_choice":false,"side_choice": "LEFT", "trial_number":89,"observed_reward":0,"unobserved_reward":0},{"RT":2584,"time": "2018-08-15 03:36:17pm", "schedule_type": "STATIC", "schedule_name": "random_18", "is_biased_choice":true,"side_choice": "RIGHT", "trial_number":90,"observed_reward":1,"unobserved_reward":0},{"RT":2824,"time": "2018-08-15 03:36:20pm", "schedule_type": "STATIC", "schedule_name": "random_18", "is_biased_choice":true,"side_choice": "RIGHT", "trial_number":91,"observed_reward":0,"unobserved_reward":0},{"RT":2319,"time": "2018-08-15 03:36:22pm", "schedule_type": "STATIC", "schedule_name": "random_18", "is_biased_choice":true,"side_choice": "RIGHT", "trial_number":92,"observed_reward":0,"unobserved_reward":0},{"RT":4080,"time": "2018-08-15 03:36:26pm", "schedule_type": "STATIC", "schedule_name": "random_18", "is_biased_choice":true,"side_choice": "RIGHT", "trial_number":93,"observed_reward":1,"unobserved_reward":0},{"RT":2536,"time": "2018-08-15 03:36:29pm", "schedule_type": "STATIC", "schedule_name": "random_18", "is_biased_choice":true,"side_choice": "RIGHT", "trial_number":94,"observed_reward":1,"unobserved_reward":0},{"RT":3319,"time": "2018-08-15 03:36:32pm", "schedule_type": "STATIC", "schedule_name": "random_18", "is_biased_choice":true,"side_choice": "RIGHT", "trial_number":95,"observed_reward":1,"unobserved_reward":0},{"RT":2375,"time": "2018-08-15 03:36:34pm", "schedule_type": "STATIC", "schedule_name": "random_18", "is_biased_choice":true,"side_choice": "RIGHT", "trial_number":96,"observed_reward":0,"unobserved_reward":0},{"RT":2417,"time": "2018-08-15 03:36:37pm", "schedule_type": "STATIC", "schedule_name": "random_18", "is_biased_choice":false,"side_choice": "LEFT", "trial_number":97,"observed_reward":0,"unobserved_reward":0},{"RT":2295,"time": "2018-08-15 03:36:39pm", "schedule_type": "STATIC", "schedule_name": "random_18", "is_biased_choice":true,"side_choice": "RIGHT", "trial_number":98,"observed_reward":0,"unobserved_reward":0},{"RT":2279,"time": "2018-08-15 03:36:41pm", "schedule_type": "STATIC", "schedule_name": "random_18", "is_biased_choice":true,"side_choice": "RIGHT", "trial_number":99,"observed_reward":0,"unobserved_reward":0},