[{"RT":2691,"time": "2018-07-29 03:46:22pm", "schedule_type": "STATIC", "schedule_name": "random_1", "is_biased_choice":false,"side_choice": "LEFT", "trial_number":0,"observed_reward":1,"unobserved_reward":0},{"RT":4664,"time": "2018-07-29 03:46:26pm", "schedule_type": "STATIC", "schedule_name": "random_1", "is_biased_choice":true,"side_choice": "RIGHT", "trial_number":1,"observed_reward":0,"unobserved_reward":0},{"RT":3179,"time": "2018-07-29 03:46:29pm", "schedule_type": "STATIC", "schedule_name": "random_1", "is_biased_choice":true,"side_choice": "RIGHT", "trial_number":2,"observed_reward":0,"unobserved_reward":0},{"RT":3258,"time": "2018-07-29 03:46:33pm", "schedule_type": "STATIC", "schedule_name": "random_1", "is_biased_choice":false,"side_choice": "LEFT", "trial_number":3,"observed_reward":0,"unobserved_reward":1},{"RT":3375,"time": "2018-07-29 03:46:36pm", "schedule_type": "STATIC", "schedule_name": "random_1", "is_biased_choice":true,"side_choice": "RIGHT", "trial_number":4,"observed_reward":1,"unobserved_reward":1},{"RT":4397,"time": "2018-07-29 03:46:41pm", "schedule_type": "STATIC", "schedule_name": "random_1", "is_biased_choice":false,"side_choice": "LEFT", "trial_number":5,"observed_reward":0,"unobserved_reward":0},{"RT":2891,"time": "2018-07-29 03:46:43pm", "schedule_type": "STATIC", "schedule_name": "random_1", "is_biased_choice":false,"side_choice": "LEFT", "trial_number":6,"observed_reward":0,"unobserved_reward":0},{"RT":2860,"time": "2018-07-29 03:46:46pm", "schedule_type": "STATIC", "schedule_name": "random_1", "is_biased_choice":false,"side_choice": "LEFT", "trial_number":7,"observed_reward":0,"unobserved_reward":1},{"RT":2913,"time": "2018-07-29 03:46:49pm", "schedule_type": "STATIC", "schedule_name": "random_1", "is_biased_choice":true,"side_choice": "RIGHT", "trial_number":8,"observed_reward":0,"unobserved_reward":0},{"RT":2727,"time": "2018-07-29 03:46:52pm", "schedule_type": "STATIC", "schedule_name": "random_1", "is_biased_choice":true,"side_choice": "RIGHT", "trial_number":9,"observed_reward":0,"unobserved_reward":1},{"RT":3085,"time": "2018-07-29 03:46:55pm", "schedule_type": "STATIC", "schedule_name": "random_1", "is_biased_choice":false,"side_choice": "LEFT", "trial_number":10,"observed_reward":0,"unobserved_reward":0},{"RT":2635,"time": "2018-07-29 03:46:58pm", "schedule_type": "STATIC", "schedule_name": "random_1", "is_biased_choice":false,"side_choice": "LEFT", "trial_number":11,"observed_reward":0,"unobserved_reward":0},{"RT":3132,"time": "2018-07-29 03:47:01pm", "schedule_type": "STATIC", "schedule_name": "random_1", "is_biased_choice":true,"side_choice": "RIGHT", "trial_number":12,"observed_reward":1,"unobserved_reward":0},{"RT":2881,"time": "2018-07-29 03:47:04pm", "schedule_type": "STATIC", "schedule_name": "random_1", "is_biased_choice":true,"side_choice": "RIGHT", "trial_number":13,"observed_reward":1,"unobserved_reward":0},{"RT":3213,"time": "2018-07-29 03:47:07pm", "schedule_type": "STATIC", "schedule_name": "random_1", "is_biased_choice":true,"side_choice": "RIGHT", "trial_number":14,"observed_reward":0,"unobserved_reward":0},{"RT":2943,"time": "2018-07-29 03:47:10pm", "schedule_type": "STATIC", "schedule_name": "random_1", "is_biased_choice":true,"side_choice": "RIGHT", "trial_number":15,"observed_reward":0,"unobserved_reward":0},{"RT":2556,"time": "2018-07-29 03:47:12pm", "schedule_type": "STATIC", "schedule_name": "random_1", "is_biased_choice":false,"side_choice": "LEFT", "trial_number":16,"observed_reward":0,"unobserved_reward":0},{"RT":2719,"time": "2018-07-29 03:47:15pm", "schedule_type": "STATIC", "schedule_name": "random_1", "is_biased_choice":true,"side_choice": "RIGHT", "trial_number":17,"observed_reward":0,"unobserved_reward":1},{"RT":2664,"time": "2018-07-29 03:47:18pm", "schedule_type": "STATIC", "schedule_name": "random_1", "is_biased_choice":false,"side_choice": "LEFT", "trial_number":18,"observed_reward":0,"unobserved_reward":0},{"RT":2835,"time": "2018-07-29 03:47:21pm", "schedule_type": "STATIC", "schedule_name": "random_1", "is_biased_choice":false,"side_choice": "LEFT", "trial_number":19,"observed_reward":0,"unobserved_reward":0},{"RT":2758,"time": "2018-07-29 03:47:23pm", "schedule_type": "STATIC", "schedule_name": "random_1", "is_biased_choice":true,"side_choice": "RIGHT", "trial_number":20,"observed_reward":0,"unobserved_reward":0},{"RT":2718,"time": "2018-07-29 03:47:26pm", "schedule_type": "STATIC", "schedule_name": "random_1", "is_biased_choice":false,"side_choice": "LEFT", "trial_number":21,"observed_reward":0,"unobserved_reward":0},{"RT":3016,"time": "2018-07-29 03:47:29pm", "schedule_type": "STATIC", "schedule_name": "random_1", "is_biased_choice":true,"side_choice": "RIGHT", "trial_number":22,"observed_reward":0,"unobserved_reward":1},{"RT":2968,"time": "2018-07-29 03:47:32pm", "schedule_type": "STATIC", "schedule_name": "random_1", "is_biased_choice":false,"side_choice": "LEFT", "trial_number":23,"observed_reward":0,"unobserved_reward":0},{"RT":3319,"time": "2018-07-29 03:47:35pm", "schedule_type": "STATIC", "schedule_name": "random_1", "is_biased_choice":true,"side_choice": "RIGHT", "trial_number":24,"observed_reward":0,"unobserved_reward":1},{"RT":2463,"time": "2018-07-29 03:47:38pm", "schedule_type": "STATIC", "schedule_name": "random_1", "is_biased_choice":true,"side_choice": "RIGHT", "trial_number":25,"observed_reward":0,"unobserved_reward":0},{"RT":2616,"time": "2018-07-29 03:47:40pm", "schedule_type": "STATIC", "schedule_name": "random_1", "is_biased_choice":false,"side_choice": "LEFT", "trial_number":26,"observed_reward":0,"unobserved_reward":0},{"RT":2641,"time": "2018-07-29 03:47:43pm", "schedule_type": "STATIC", "schedule_name": "random_1", "is_biased_choice":true,"side_choice": "RIGHT", "trial_number":27,"observed_reward":1,"unobserved_reward":1},{"RT":2531,"time": "2018-07-29 03:47:46pm", "schedule_type": "STATIC", "schedule_name": "random_1", "is_biased_choice":true,"side_choice": "RIGHT", "trial_number":28,"observed_reward":0,"unobserved_reward":1},{"RT":2570,"time": "2018-07-29 03:47:48pm", "schedule_type": "STATIC", "schedule_name": "random_1", "is_biased_choice":true,"side_choice": "RIGHT", "trial_number":29,"observed_reward":1,"unobserved_reward":0},{"RT":2516,"time": "2018-07-29 03:47:51pm", "schedule_type": "STATIC", "schedule_name": "random_1", "is_biased_choice":true,"side_choice": "RIGHT", "trial_number":30,"observed_reward":0,"unobserved_reward":1},{"RT":2476,"time": "2018-07-29 03:47:53pm", "schedule_type": "STATIC", "schedule_name": "random_1", "is_biased_choice":true,"side_choice": "RIGHT", "trial_number":31,"observed_reward":0,"unobserved_reward":1},{"RT":2648,"time": "2018-07-29 03:47:56pm", "schedule_type": "STATIC", "schedule_name": "random_1", "is_biased_choice":false,"side_choice": "LEFT", "trial_number":32,"observed_reward":1,"unobserved_reward":1},{"RT":2945,"time": "2018-07-29 03:47:59pm", "schedule_type": "STATIC", "schedule_name": "random_1", "is_biased_choice":false,"side_choice": "LEFT", "trial_number":33,"observed_reward":0,"unobserved_reward":1},{"RT":2539,"time": "2018-07-29 03:48:01pm", "schedule_type": "STATIC", "schedule_name": "random_1", "is_biased_choice":true,"side_choice": "RIGHT", "trial_number":34,"observed_reward":0,"unobserved_reward":0},{"RT":3392,"time": "2018-07-29 03:48:05pm", "schedule_type": "STATIC", "schedule_name": "random_1", "is_biased_choice":true,"side_choice": "RIGHT", "trial_number":35,"observed_reward":1,"unobserved_reward":1},{"RT":2742,"time": "2018-07-29 03:48:07pm", "schedule_type": "STATIC", "schedule_name": "random_1", "is_biased_choice":false,"side_choice": "LEFT", "trial_number":36,"observed_reward":0,"unobserved_reward":1},{"RT":2562,"time": "2018-07-29 03:48:10pm", "schedule_type": "STATIC", "schedule_name": "random_1", "is_biased_choice":true,"side_choice": "RIGHT", "trial_number":37,"observed_reward":0,"unobserved_reward":0},{"RT":2422,"time": "2018-07-29 03:48:12pm", "schedule_type": "STATIC", "schedule_name": "random_1", "is_biased_choice":true,"side_choice": "RIGHT", "trial_number":38,"observed_reward":1,"unobserved_reward":0},{"RT":3266,"time": "2018-07-29 03:48:16pm", "schedule_type": "STATIC", "schedule_name": "random_1", "is_biased_choice":false,"side_choice": "LEFT", "trial_number":39,"observed_reward":0,"unobserved_reward":0},{"RT":2530,"time": "2018-07-29 03:48:18pm", "schedule_type": "STATIC", "schedule_name": "random_1", "is_biased_choice":false,"side_choice": "LEFT", "trial_number":40,"observed_reward":1,"unobserved_reward":1},{"RT":3921,"time": "2018-07-29 03:48:22pm", "schedule_type": "STATIC", "schedule_name": "random_1", "is_biased_choice":true,"side_choice": "RIGHT", "trial_number":41,"observed_reward":1,"unobserved_reward":0},{"RT":2861,"time": "2018-07-29 03:48:25pm", "schedule_type": "STATIC", "schedule_name": "random_1", "is_biased_choice":true,"side_choice": "RIGHT", "trial_number":42,"observed_reward":0,"unobserved_reward":0},{"RT":2648,"time": "2018-07-29 03:48:28pm", "schedule_type": "STATIC", "schedule_name": "random_1", "is_biased_choice":false,"side_choice": "LEFT", "trial_number":43,"observed_reward":0,"unobserved_reward":0},{"RT":2508,"time": "2018-07-29 03:48:30pm", "schedule_type": "STATIC", "schedule_name": "random_1", "is_biased_choice":false,"side_choice": "LEFT", "trial_number":44,"observed_reward":0,"unobserved_reward":0},{"RT":2694,"time": "2018-07-29 03:48:33pm", "schedule_type": "STATIC", "schedule_name": "random_1", "is_biased_choice":false,"side_choice": "LEFT", "trial_number":45,"observed_reward":0,"unobserved_reward":0},{"RT":3126,"time": "2018-07-29 03:48:36pm", "schedule_type": "STATIC", "schedule_name": "random_1", "is_biased_choice":false,"side_choice": "LEFT", "trial_number":46,"observed_reward":0,"unobserved_reward":1},{"RT":2475,"time": "2018-07-29 03:48:38pm", "schedule_type": "STATIC", "schedule_name": "random_1", "is_biased_choice":true,"side_choice": "RIGHT", "trial_number":47,"observed_reward":1,"unobserved_reward":1},{"RT":2791,"time": "2018-07-29 03:48:41pm", "schedule_type": "STATIC", "schedule_name": "random_1", "is_biased_choice":true,"side_choice": "RIGHT", "trial_number":48,"observed_reward":0,"unobserved_reward":0},{"RT":2607,"time": "2018-07-29 03:48:44pm", "schedule_type": "STATIC", "schedule_name": "random_1", "is_biased_choice":false,"side_choice": "LEFT", "trial_number":49,"observed_reward":0,"unobserved_reward":1},{"RT":2681,"time": "2018-07-29 03:48:46pm", "schedule_type": "STATIC", "schedule_name": "random_1", "is_biased_choice":false,"side_choice": "LEFT", "trial_number":50,"observed_reward":0,"unobserved_reward":0},{"RT":2601,"time": "2018-07-29 03:48:49pm", "schedule_type": "STATIC", "schedule_name": "random_1", "is_biased_choice":true,"side_choice": "RIGHT", "trial_number":51,"observed_reward":1,"unobserved_reward":0},{"RT":2632,"time": "2018-07-29 03:48:52pm", "schedule_type": "STATIC", "schedule_name": "random_1", "is_biased_choice":true,"side_choice": "RIGHT", "trial_number":52,"observed_reward":0,"unobserved_reward":0},{"RT":3071,"time": "2018-07-29 03:48:55pm", "schedule_type": "STATIC", "schedule_name": "random_1", "is_biased_choice":true,"side_choice": "RIGHT", "trial_number":53,"observed_reward":0,"unobserved_reward":0},{"RT":3555,"time": "2018-07-29 03:48:58pm", "schedule_type": "STATIC", "schedule_name": "random_1", "is_biased_choice":false,"side_choice": "LEFT", "trial_number":54,"observed_reward":0,"unobserved_reward":0},{"RT":2834,"time": "2018-07-29 03:49:01pm", "schedule_type": "STATIC", "schedule_name": "random_1", "is_biased_choice":true,"side_choice": "RIGHT", "trial_number":55,"observed_reward":0,"unobserved_reward":1},{"RT":2742,"time": "2018-07-29 03:49:04pm", "schedule_type": "STATIC", "schedule_name": "random_1", "is_biased_choice":true,"side_choice": "RIGHT", "trial_number":56,"observed_reward":0,"unobserved_reward":0},{"RT":2479,"time": "2018-07-29 03:49:06pm", "schedule_type": "STATIC", "schedule_name": "random_1", "is_biased_choice":false,"side_choice": "LEFT", "trial_number":57,"observed_reward":0,"unobserved_reward":0},{"RT":2499,"time": "2018-07-29 03:49:09pm", "schedule_type": "STATIC", "schedule_name": "random_1", "is_biased_choice":false,"side_choice": "LEFT", "trial_number":58,"observed_reward":1,"unobserved_reward":0},{"RT":4866,"time": "2018-07-29 03:49:14pm", "schedule_type": "STATIC", "schedule_name": "random_1", "is_biased_choice":false,"side_choice": "LEFT", "trial_number":59,"observed_reward":0,"unobserved_reward":0},{"RT":2640,"time": "2018-07-29 03:49:16pm", "schedule_type": "STATIC", "schedule_name": "random_1", "is_biased_choice":true,"side_choice": "RIGHT", "trial_number":60,"observed_reward":0,"unobserved_reward":0},{"RT":2400,"time": "2018-07-29 03:49:19pm", "schedule_type": "STATIC", "schedule_name": "random_1", "is_biased_choice":true,"side_choice": "RIGHT", "trial_number":61,"observed_reward":0,"unobserved_reward":0},{"RT":2586,"time": "2018-07-29 03:49:21pm", "schedule_type": "STATIC", "schedule_name": "random_1", "is_biased_choice":false,"side_choice": "LEFT", "trial_number":62,"observed_reward":0,"unobserved_reward":0},{"RT":2694,"time": "2018-07-29 03:49:24pm", "schedule_type": "STATIC", "schedule_name": "random_1", "is_biased_choice":false,"side_choice": "LEFT", "trial_number":63,"observed_reward":1,"unobserved_reward":0},{"RT":3852,"time": "2018-07-29 03:49:28pm", "schedule_type": "STATIC", "schedule_name": "random_1", "is_biased_choice":true,"side_choice": "RIGHT", "trial_number":64,"observed_reward":1,"unobserved_reward":0},{"RT":2688,"time": "2018-07-29 03:49:31pm", "schedule_type": "STATIC", "schedule_name": "random_1", "is_biased_choice":false,"side_choice": "LEFT", "trial_number":65,"observed_reward":0,"unobserved_reward":1},{"RT":2530,"time": "2018-07-29 03:49:33pm", "schedule_type": "STATIC", "schedule_name": "random_1", "is_biased_choice":false,"side_choice": "LEFT", "trial_number":66,"observed_reward":0,"unobserved_reward":0},{"RT":2492,"time": "2018-07-29 03:49:36pm", "schedule_type": "STATIC", "schedule_name": "random_1", "is_biased_choice":true,"side_choice": "RIGHT", "trial_number":67,"observed_reward":0,"unobserved_reward":1},{"RT":2430,"time": "2018-07-29 03:49:38pm", "schedule_type": "STATIC", "schedule_name": "random_1", "is_biased_choice":true,"side_choice": "RIGHT", "trial_number":68,"observed_reward":0,"unobserved_reward":1},{"RT":2586,"time": "2018-07-29 03:49:41pm", "schedule_type": "STATIC", "schedule_name": "random_1", "is_biased_choice":false,"side_choice": "LEFT", "trial_number":69,"observed_reward":0,"unobserved_reward":0},{"RT":2639,"time": "2018-07-29 03:49:43pm", "schedule_type": "STATIC", "schedule_name": "random_1", "is_biased_choice":true,"side_choice": "RIGHT", "trial_number":70,"observed_reward":0,"unobserved_reward":0},{"RT":2500,"time": "2018-07-29 03:49:46pm", "schedule_type": "STATIC", "schedule_name": "random_1", "is_biased_choice":true,"side_choice": "RIGHT", "trial_number":71,"observed_reward":0,"unobserved_reward":0},{"RT":2509,"time": "2018-07-29 03:49:48pm", "schedule_type": "STATIC", "schedule_name": "random_1", "is_biased_choice":false,"side_choice": "LEFT", "trial_number":72,"observed_reward":0,"unobserved_reward":1},{"RT":2468,"time": "2018-07-29 03:49:51pm", "schedule_type": "STATIC", "schedule_name": "random_1", "is_biased_choice":false,"side_choice": "LEFT", "trial_number":73,"observed_reward":1,"unobserved_reward":0},{"RT":2680,"time": "2018-07-29 03:49:53pm", "schedule_type": "STATIC", "schedule_name": "random_1", "is_biased_choice":true,"side_choice": "RIGHT", "trial_number":74,"observed_reward":0,"unobserved_reward":1},{"RT":2634,"time": "2018-07-29 03:49:56pm", "schedule_type": "STATIC", "schedule_name": "random_1", "is_biased_choice":true,"side_choice": "RIGHT", "trial_number":75,"observed_reward":0,"unobserved_reward":0},{"RT":2685,"time": "2018-07-29 03:49:59pm", "schedule_type": "STATIC", "schedule_name": "random_1", "is_biased_choice":false,"side_choice": "LEFT", "trial_number":76,"observed_reward":0,"unobserved_reward":1},{"RT":2455,"time": "2018-07-29 03:50:01pm", "schedule_type": "STATIC", "schedule_name": "random_1", "is_biased_choice":false,"side_choice": "LEFT", "trial_number":77,"observed_reward":0,"unobserved_reward":0},{"RT":2429,"time": "2018-07-29 03:50:04pm", "schedule_type": "STATIC", "schedule_name": "random_1", "is_biased_choice":false,"side_choice": "LEFT", "trial_number":78,"observed_reward":0,"unobserved_reward":0},{"RT":3006,"time": "2018-07-29 03:50:07pm", "schedule_type": "STATIC", "schedule_name": "random_1", "is_biased_choice":false,"side_choice": "LEFT", "trial_number":79,"observed_reward":0,"unobserved_reward":0},{"RT":2650,"time": "2018-07-29 03:50:09pm", "schedule_type": "STATIC", "schedule_name": "random_1", "is_biased_choice":true,"side_choice": "RIGHT", "trial_number":80,"observed_reward":0,"unobserved_reward":1},{"RT":4186,"time": "2018-07-29 03:50:14pm", "schedule_type": "STATIC", "schedule_name": "random_1", "is_biased_choice":true,"side_choice": "RIGHT", "trial_number":81,"observed_reward":0,"unobserved_reward":1},{"RT":2602,"time": "2018-07-29 03:50:16pm", "schedule_type": "STATIC", "schedule_name": "random_1", "is_biased_choice":false,"side_choice": "LEFT", "trial_number":82,"observed_reward":1,"unobserved_reward":0},{"RT":2390,"time": "2018-07-29 03:50:19pm", "schedule_type": "STATIC", "schedule_name": "random_1", "is_biased_choice":false,"side_choice": "LEFT", "trial_number":83,"observed_reward":1,"unobserved_reward":0},{"RT":2556,"time": "2018-07-29 03:50:21pm", "schedule_type": "STATIC", "schedule_name": "random_1", "is_biased_choice":false,"side_choice": "LEFT", "trial_number":84,"observed_reward":0,"unobserved_reward":0},{"RT":2570,"time": "2018-07-29 03:50:24pm", "schedule_type": "STATIC", "schedule_name": "random_1", "is_biased_choice":false,"side_choice": "LEFT", "trial_number":85,"observed_reward":0,"unobserved_reward":1},{"RT":2407,"time": "2018-07-29 03:50:26pm", "schedule_type": "STATIC", "schedule_name": "random_1", "is_biased_choice":false,"side_choice": "LEFT", "trial_number":86,"observed_reward":0,"unobserved_reward":0},{"RT":2553,"time": "2018-07-29 03:50:29pm", "schedule_type": "STATIC", "schedule_name": "random_1", "is_biased_choice":true,"side_choice": "RIGHT", "trial_number":87,"observed_reward":0,"unobserved_reward":0},{"RT":2579,"time": "2018-07-29 03:50:31pm", "schedule_type": "STATIC", "schedule_name": "random_1", "is_biased_choice":false,"side_choice": "LEFT", "trial_number":88,"observed_reward":0,"unobserved_reward":0},{"RT":2930,"time": "2018-07-29 03:50:34pm", "schedule_type": "STATIC", "schedule_name": "random_1", "is_biased_choice":false,"side_choice": "LEFT", "trial_number":89,"observed_reward":0,"unobserved_reward":0},{"RT":3037,"time": "2018-07-29 03:50:37pm", "schedule_type": "STATIC", "schedule_name": "random_1", "is_biased_choice":true,"side_choice": "RIGHT", "trial_number":90,"observed_reward":0,"unobserved_reward":0},{"RT":2595,"time": "2018-07-29 03:50:40pm", "schedule_type": "STATIC", "schedule_name": "random_1", "is_biased_choice":false,"side_choice": "LEFT", "trial_number":91,"observed_reward":0,"unobserved_reward":0},{"RT":2563,"time": "2018-07-29 03:50:42pm", "schedule_type": "STATIC", "schedule_name": "random_1", "is_biased_choice":true,"side_choice": "RIGHT", "trial_number":92,"observed_reward":1,"unobserved_reward":0},{"RT":3248,"time": "2018-07-29 03:50:46pm", "schedule_type": "STATIC", "schedule_name": "random_1", "is_biased_choice":false,"side_choice": "LEFT", "trial_number":93,"observed_reward":0,"unobserved_reward":0},{"RT":2618,"time": "2018-07-29 03:50:48pm", "schedule_type": "STATIC", "schedule_name": "random_1", "is_biased_choice":false,"side_choice": "LEFT", "trial_number":94,"observed_reward":0,"unobserved_reward":0},{"RT":2623,"time": "2018-07-29 03:50:51pm", "schedule_type": "STATIC", "schedule_name": "random_1", "is_biased_choice":true,"side_choice": "RIGHT", "trial_number":95,"observed_reward":1,"unobserved_reward":0},{"RT":4283,"time": "2018-07-29 03:50:55pm", "schedule_type": "STATIC", "schedule_name": "random_1", "is_biased_choice":true,"side_choice": "RIGHT", "trial_number":96,"observed_reward":0,"unobserved_reward":0},{"RT":3296,"time": "2018-07-29 03:50:58pm", "schedule_type": "STATIC", "schedule_name": "random_1", "is_biased_choice":false,"side_choice": "LEFT", "trial_number":97,"observed_reward":0,"unobserved_reward":0},{"RT":3438,"time": "2018-07-29 03:51:02pm", "schedule_type": "STATIC", "schedule_name": "random_1", "is_biased_choice":true,"side_choice": "RIGHT", "trial_number":98,"observed_reward":0,"unobserved_reward":0},{"RT":2954,"time": "2018-07-29 03:51:05pm", "schedule_type": "STATIC", "schedule_name": "random_1", "is_biased_choice":true,"side_choice": "RIGHT", "trial_number":99,"observed_reward":0,"unobserved_reward":0}]