[{"RT":5590,"time": "2018-08-15 03:57:27pm", "schedule_type": "STATIC", "schedule_name": "random_1", "is_biased_choice":true,"side_choice": "LEFT", "trial_number":0,"observed_reward":0,"unobserved_reward":1},{"RT":3602,"time": "2018-08-15 03:57:31pm", "schedule_type": "STATIC", "schedule_name": "random_1", "is_biased_choice":false,"side_choice": "RIGHT", "trial_number":1,"observed_reward":0,"unobserved_reward":0},{"RT":3271,"time": "2018-08-15 03:57:34pm", "schedule_type": "STATIC", "schedule_name": "random_1", "is_biased_choice":false,"side_choice": "RIGHT", "trial_number":2,"observed_reward":0,"unobserved_reward":0},{"RT":3047,"time": "2018-08-15 03:57:37pm", "schedule_type": "STATIC", "schedule_name": "random_1", "is_biased_choice":false,"side_choice": "RIGHT", "trial_number":3,"observed_reward":0,"unobserved_reward":1},{"RT":3211,"time": "2018-08-15 03:57:40pm", "schedule_type": "STATIC", "schedule_name": "random_1", "is_biased_choice":true,"side_choice": "LEFT", "trial_number":4,"observed_reward":1,"unobserved_reward":1},{"RT":3047,"time": "2018-08-15 03:57:43pm", "schedule_type": "STATIC", "schedule_name": "random_1", "is_biased_choice":true,"side_choice": "LEFT", "trial_number":5,"observed_reward":0,"unobserved_reward":0},{"RT":3553,"time": "2018-08-15 03:57:47pm", "schedule_type": "STATIC", "schedule_name": "random_1", "is_biased_choice":false,"side_choice": "RIGHT", "trial_number":6,"observed_reward":0,"unobserved_reward":0},{"RT":4078,"time": "2018-08-15 03:57:51pm", "schedule_type": "STATIC", "schedule_name": "random_1", "is_biased_choice":false,"side_choice": "RIGHT", "trial_number":7,"observed_reward":0,"unobserved_reward":1},{"RT":3351,"time": "2018-08-15 03:57:54pm", "schedule_type": "STATIC", "schedule_name": "random_1", "is_biased_choice":true,"side_choice": "LEFT", "trial_number":8,"observed_reward":0,"unobserved_reward":0},{"RT":2500,"time": "2018-08-15 03:57:57pm", "schedule_type": "STATIC", "schedule_name": "random_1", "is_biased_choice":true,"side_choice": "LEFT", "trial_number":9,"observed_reward":0,"unobserved_reward":1},{"RT":2343,"time": "2018-08-15 03:57:59pm", "schedule_type": "STATIC", "schedule_name": "random_1", "is_biased_choice":false,"side_choice": "RIGHT", "trial_number":10,"observed_reward":0,"unobserved_reward":0},{"RT":2787,"time": "2018-08-15 03:58:02pm", "schedule_type": "STATIC", "schedule_name": "random_1", "is_biased_choice":false,"side_choice": "RIGHT", "trial_number":11,"observed_reward":0,"unobserved_reward":0},{"RT":2595,"time": "2018-08-15 03:58:05pm", "schedule_type": "STATIC", "schedule_name": "random_1", "is_biased_choice":true,"side_choice": "LEFT", "trial_number":12,"observed_reward":1,"unobserved_reward":0},{"RT":2423,"time": "2018-08-15 03:58:07pm", "schedule_type": "STATIC", "schedule_name": "random_1", "is_biased_choice":true,"side_choice": "LEFT", "trial_number":13,"observed_reward":1,"unobserved_reward":0},{"RT":2398,"time": "2018-08-15 03:58:09pm", "schedule_type": "STATIC", "schedule_name": "random_1", "is_biased_choice":true,"side_choice": "LEFT", "trial_number":14,"observed_reward":0,"unobserved_reward":0},{"RT":2344,"time": "2018-08-15 03:58:12pm", "schedule_type": "STATIC", "schedule_name": "random_1", "is_biased_choice":false,"side_choice": "RIGHT", "trial_number":15,"observed_reward":0,"unobserved_reward":0},{"RT":2206,"time": "2018-08-15 03:58:14pm", "schedule_type": "STATIC", "schedule_name": "random_1", "is_biased_choice":false,"side_choice": "RIGHT", "trial_number":16,"observed_reward":0,"unobserved_reward":0},{"RT":2208,"time": "2018-08-15 03:58:16pm", "schedule_type": "STATIC", "schedule_name": "random_1", "is_biased_choice":true,"side_choice": "LEFT", "trial_number":17,"observed_reward":0,"unobserved_reward":1},{"RT":2243,"time": "2018-08-15 03:58:18pm", "schedule_type": "STATIC", "schedule_name": "random_1", "is_biased_choice":false,"side_choice": "RIGHT", "trial_number":18,"observed_reward":0,"unobserved_reward":0},{"RT":2252,"time": "2018-08-15 03:58:21pm", "schedule_type": "STATIC", "schedule_name": "random_1", "is_biased_choice":false,"side_choice": "RIGHT", "trial_number":19,"observed_reward":0,"unobserved_reward":0},{"RT":2229,"time": "2018-08-15 03:58:23pm", "schedule_type": "STATIC", "schedule_name": "random_1", "is_biased_choice":false,"side_choice": "RIGHT", "trial_number":20,"observed_reward":0,"unobserved_reward":0},{"RT":2379,"time": "2018-08-15 03:58:25pm", "schedule_type": "STATIC", "schedule_name": "random_1", "is_biased_choice":true,"side_choice": "LEFT", "trial_number":21,"observed_reward":0,"unobserved_reward":0},{"RT":2415,"time": "2018-08-15 03:58:28pm", "schedule_type": "STATIC", "schedule_name": "random_1", "is_biased_choice":false,"side_choice": "RIGHT", "trial_number":22,"observed_reward":1,"unobserved_reward":0},{"RT":2259,"time": "2018-08-15 03:58:30pm", "schedule_type": "STATIC", "schedule_name": "random_1", "is_biased_choice":false,"side_choice": "RIGHT", "trial_number":23,"observed_reward":0,"unobserved_reward":0},{"RT":2523,"time": "2018-08-15 03:58:32pm", "schedule_type": "STATIC", "schedule_name": "random_1", "is_biased_choice":false,"side_choice": "RIGHT", "trial_number":24,"observed_reward":1,"unobserved_reward":0},{"RT":2437,"time": "2018-08-15 03:58:35pm", "schedule_type": "STATIC", "schedule_name": "random_1", "is_biased_choice":false,"side_choice": "RIGHT", "trial_number":25,"observed_reward":0,"unobserved_reward":0},{"RT":2367,"time": "2018-08-15 03:58:37pm", "schedule_type": "STATIC", "schedule_name": "random_1", "is_biased_choice":false,"side_choice": "RIGHT", "trial_number":26,"observed_reward":0,"unobserved_reward":0},{"RT":2403,"time": "2018-08-15 03:58:40pm", "schedule_type": "STATIC", "schedule_name": "random_1", "is_biased_choice":true,"side_choice": "LEFT", "trial_number":27,"observed_reward":1,"unobserved_reward":1},{"RT":2310,"time": "2018-08-15 03:58:42pm", "schedule_type": "STATIC", "schedule_name": "random_1", "is_biased_choice":true,"side_choice": "LEFT", "trial_number":28,"observed_reward":0,"unobserved_reward":1},{"RT":2266,"time": "2018-08-15 03:58:44pm", "schedule_type": "STATIC", "schedule_name": "random_1", "is_biased_choice":false,"side_choice": "RIGHT", "trial_number":29,"observed_reward":0,"unobserved_reward":1},{"RT":2231,"time": "2018-08-15 03:58:46pm", "schedule_type": "STATIC", "schedule_name": "random_1", "is_biased_choice":false,"side_choice": "RIGHT", "trial_number":30,"observed_reward":1,"unobserved_reward":0},{"RT":2197,"time": "2018-08-15 03:58:49pm", "schedule_type": "STATIC", "schedule_name": "random_1", "is_biased_choice":false,"side_choice": "RIGHT", "trial_number":31,"observed_reward":1,"unobserved_reward":0},{"RT":2346,"time": "2018-08-15 03:58:51pm", "schedule_type": "STATIC", "schedule_name": "random_1", "is_biased_choice":true,"side_choice": "LEFT", "trial_number":32,"observed_reward":1,"unobserved_reward":1},{"RT":2391,"time": "2018-08-15 03:58:53pm", "schedule_type": "STATIC", "schedule_name": "random_1", "is_biased_choice":false,"side_choice": "RIGHT", "trial_number":33,"observed_reward":0,"unobserved_reward":1},{"RT":2094,"time": "2018-08-15 03:58:55pm", "schedule_type": "STATIC", "schedule_name": "random_1", "is_biased_choice":false,"side_choice": "RIGHT", "trial_number":34,"observed_reward":0,"unobserved_reward":0},{"RT":2197,"time": "2018-08-15 03:58:58pm", "schedule_type": "STATIC", "schedule_name": "random_1", "is_biased_choice":false,"side_choice": "RIGHT", "trial_number":35,"observed_reward":1,"unobserved_reward":1},{"RT":2116,"time": "2018-08-15 03:59:00pm", "schedule_type": "STATIC", "schedule_name": "random_1", "is_biased_choice":false,"side_choice": "RIGHT", "trial_number":36,"observed_reward":0,"unobserved_reward":1},{"RT":3102,"time": "2018-08-15 03:59:03pm", "schedule_type": "STATIC", "schedule_name": "random_1", "is_biased_choice":true,"side_choice": "LEFT", "trial_number":37,"observed_reward":0,"unobserved_reward":0},{"RT":2232,"time": "2018-08-15 03:59:05pm", "schedule_type": "STATIC", "schedule_name": "random_1", "is_biased_choice":false,"side_choice": "RIGHT", "trial_number":38,"observed_reward":0,"unobserved_reward":1},{"RT":2928,"time": "2018-08-15 03:59:08pm", "schedule_type": "STATIC", "schedule_name": "random_1", "is_biased_choice":false,"side_choice": "RIGHT", "trial_number":39,"observed_reward":0,"unobserved_reward":0},{"RT":2715,"time": "2018-08-15 03:59:11pm", "schedule_type": "STATIC", "schedule_name": "random_1", "is_biased_choice":true,"side_choice": "LEFT", "trial_number":40,"observed_reward":1,"unobserved_reward":1},{"RT":2426,"time": "2018-08-15 03:59:13pm", "schedule_type": "STATIC", "schedule_name": "random_1", "is_biased_choice":false,"side_choice": "RIGHT", "trial_number":41,"observed_reward":0,"unobserved_reward":1},{"RT":2403,"time": "2018-08-15 03:59:16pm", "schedule_type": "STATIC", "schedule_name": "random_1", "is_biased_choice":true,"side_choice": "LEFT", "trial_number":42,"observed_reward":0,"unobserved_reward":0},{"RT":2243,"time": "2018-08-15 03:59:18pm", "schedule_type": "STATIC", "schedule_name": "random_1", "is_biased_choice":false,"side_choice": "RIGHT", "trial_number":43,"observed_reward":0,"unobserved_reward":0},{"RT":2071,"time": "2018-08-15 03:59:20pm", "schedule_type": "STATIC", "schedule_name": "random_1", "is_biased_choice":false,"side_choice": "RIGHT", "trial_number":44,"observed_reward":0,"unobserved_reward":0},{"RT":2243,"time": "2018-08-15 03:59:22pm", "schedule_type": "STATIC", "schedule_name": "random_1", "is_biased_choice":true,"side_choice": "LEFT", "trial_number":45,"observed_reward":0,"unobserved_reward":0},{"RT":2382,"time": "2018-08-15 03:59:25pm", "schedule_type": "STATIC", "schedule_name": "random_1", "is_biased_choice":false,"side_choice": "RIGHT", "trial_number":46,"observed_reward":0,"unobserved_reward":1},{"RT":2516,"time": "2018-08-15 03:59:27pm", "schedule_type": "STATIC", "schedule_name": "random_1", "is_biased_choice":true,"side_choice": "LEFT", "trial_number":47,"observed_reward":1,"unobserved_reward":1},{"RT":2415,"time": "2018-08-15 03:59:29pm", "schedule_type": "STATIC", "schedule_name": "random_1", "is_biased_choice":false,"side_choice": "RIGHT", "trial_number":48,"observed_reward":0,"unobserved_reward":0},{"RT":2358,"time": "2018-08-15 03:59:32pm", "schedule_type": "STATIC", "schedule_name": "random_1", "is_biased_choice":false,"side_choice": "RIGHT", "trial_number":49,"observed_reward":0,"unobserved_reward":1},{"RT":2129,"time": "2018-08-15 03:59:34pm", "schedule_type": "STATIC", "schedule_name": "random_1", "is_biased_choice":false,"side_choice": "RIGHT", "trial_number":50,"observed_reward":0,"unobserved_reward":0},{"RT":2299,"time": "2018-08-15 03:59:36pm", "schedule_type": "STATIC", "schedule_name": "random_1", "is_biased_choice":true,"side_choice": "LEFT", "trial_number":51,"observed_reward":1,"unobserved_reward":0},{"RT":2451,"time": "2018-08-15 03:59:39pm", "schedule_type": "STATIC", "schedule_name": "random_1", "is_biased_choice":true,"side_choice": "LEFT", "trial_number":52,"observed_reward":0,"unobserved_reward":0},{"RT":2461,"time": "2018-08-15 03:59:41pm", "schedule_type": "STATIC", "schedule_name": "random_1", "is_biased_choice":false,"side_choice": "RIGHT", "trial_number":53,"observed_reward":0,"unobserved_reward":0},{"RT":2654,"time": "2018-08-15 03:59:44pm", "schedule_type": "STATIC", "schedule_name": "random_1", "is_biased_choice":true,"side_choice": "LEFT", "trial_number":54,"observed_reward":0,"unobserved_reward":0},{"RT":2782,"time": "2018-08-15 03:59:47pm", "schedule_type": "STATIC", "schedule_name": "random_1", "is_biased_choice":false,"side_choice": "RIGHT", "trial_number":55,"observed_reward":1,"unobserved_reward":0},{"RT":2277,"time": "2018-08-15 03:59:49pm", "schedule_type": "STATIC", "schedule_name": "random_1", "is_biased_choice":false,"side_choice": "RIGHT", "trial_number":56,"observed_reward":0,"unobserved_reward":0},{"RT":2529,"time": "2018-08-15 03:59:51pm", "schedule_type": "STATIC", "schedule_name": "random_1", "is_biased_choice":true,"side_choice": "LEFT", "trial_number":57,"observed_reward":0,"unobserved_reward":0},{"RT":2622,"time": "2018-08-15 03:59:54pm", "schedule_type": "STATIC", "schedule_name": "random_1", "is_biased_choice":true,"side_choice": "LEFT", "trial_number":58,"observed_reward":0,"unobserved_reward":1},{"RT":2357,"time": "2018-08-15 03:59:56pm", "schedule_type": "STATIC", "schedule_name": "random_1", "is_biased_choice":false,"side_choice": "RIGHT", "trial_number":59,"observed_reward":0,"unobserved_reward":0},{"RT":2186,"time": "2018-08-15 03:59:59pm", "schedule_type": "STATIC", "schedule_name": "random_1", "is_biased_choice":false,"side_choice": "RIGHT", "trial_number":60,"observed_reward":0,"unobserved_reward":0},{"RT":2485,"time": "2018-08-15 04:00:01pm", "schedule_type": "STATIC", "schedule_name": "random_1", "is_biased_choice":false,"side_choice": "RIGHT", "trial_number":61,"observed_reward":0,"unobserved_reward":0},{"RT":2278,"time": "2018-08-15 04:00:03pm", "schedule_type": "STATIC", "schedule_name": "random_1", "is_biased_choice":true,"side_choice": "LEFT", "trial_number":62,"observed_reward":0,"unobserved_reward":0},{"RT":2185,"time": "2018-08-15 04:00:06pm", "schedule_type": "STATIC", "schedule_name": "random_1", "is_biased_choice":false,"side_choice": "RIGHT", "trial_number":63,"observed_reward":1,"unobserved_reward":0},{"RT":2346,"time": "2018-08-15 04:00:08pm", "schedule_type": "STATIC", "schedule_name": "random_1", "is_biased_choice":false,"side_choice": "RIGHT", "trial_number":64,"observed_reward":0,"unobserved_reward":1},{"RT":2245,"time": "2018-08-15 04:00:10pm", "schedule_type": "STATIC", "schedule_name": "random_1", "is_biased_choice":true,"side_choice": "LEFT", "trial_number":65,"observed_reward":1,"unobserved_reward":0},{"RT":2225,"time": "2018-08-15 04:00:12pm", "schedule_type": "STATIC", "schedule_name": "random_1", "is_biased_choice":true,"side_choice": "LEFT", "trial_number":66,"observed_reward":0,"unobserved_reward":0},{"RT":2140,"time": "2018-08-15 04:00:14pm", "schedule_type": "STATIC", "schedule_name": "random_1", "is_biased_choice":false,"side_choice": "RIGHT", "trial_number":67,"observed_reward":1,"unobserved_reward":0},{"RT":2323,"time": "2018-08-15 04:00:17pm", "schedule_type": "STATIC", "schedule_name": "random_1", "is_biased_choice":true,"side_choice": "LEFT", "trial_number":68,"observed_reward":0,"unobserved_reward":1},{"RT":2266,"time": "2018-08-15 04:00:19pm", "schedule_type": "STATIC", "schedule_name": "random_1", "is_biased_choice":true,"side_choice": "LEFT", "trial_number":69,"observed_reward":0,"unobserved_reward":0},{"RT":2119,"time": "2018-08-15 04:00:21pm", "schedule_type": "STATIC", "schedule_name": "random_1", "is_biased_choice":false,"side_choice": "RIGHT", "trial_number":70,"observed_reward":0,"unobserved_reward":0},{"RT":2197,"time": "2018-08-15 04:00:23pm", "schedule_type": "STATIC", "schedule_name": "random_1", "is_biased_choice":true,"side_choice": "LEFT", "trial_number":71,"observed_reward":0,"unobserved_reward":0},{"RT":2427,"time": "2018-08-15 04:00:26pm", "schedule_type": "STATIC", "schedule_name": "random_1", "is_biased_choice":false,"side_choice": "RIGHT", "trial_number":72,"observed_reward":0,"unobserved_reward":1},{"RT":2197,"time": "2018-08-15 04:00:28pm", "schedule_type": "STATIC", "schedule_name": "random_1", "is_biased_choice":false,"side_choice": "RIGHT", "trial_number":73,"observed_reward":1,"unobserved_reward":0},{"RT":2255,"time": "2018-08-15 04:00:30pm", "schedule_type": "STATIC", "schedule_name": "random_1", "is_biased_choice":false,"side_choice": "RIGHT", "trial_number":74,"observed_reward":1,"unobserved_reward":0},{"RT":2805,"time": "2018-08-15 04:00:33pm", "schedule_type": "STATIC", "schedule_name": "random_1", "is_biased_choice":false,"side_choice": "RIGHT", "trial_number":75,"observed_reward":0,"unobserved_reward":0},{"RT":2414,"time": "2018-08-15 04:00:35pm", "schedule_type": "STATIC", "schedule_name": "random_1", "is_biased_choice":true,"side_choice": "LEFT", "trial_number":76,"observed_reward":1,"unobserved_reward":0},{"RT":2246,"time": "2018-08-15 04:00:38pm", "schedule_type": "STATIC", "schedule_name": "random_1", "is_biased_choice":false,"side_choice": "RIGHT", "trial_number":77,"observed_reward":0,"unobserved_reward":0},{"RT":2792,"time": "2018-08-15 04:00:40pm", "schedule_type": "STATIC", "schedule_name": "random_1", "is_biased_choice":true,"side_choice": "LEFT", "trial_number":78,"observed_reward":0,"unobserved_reward":0},{"RT":2358,"time": "2018-08-15 04:00:43pm", "schedule_type": "STATIC", "schedule_name": "random_1", "is_biased_choice":false,"side_choice": "RIGHT", "trial_number":79,"observed_reward":0,"unobserved_reward":0},{"RT":2541,"time": "2018-08-15 04:00:45pm", "schedule_type": "STATIC", "schedule_name": "random_1", "is_biased_choice":false,"side_choice": "RIGHT", "trial_number":80,"observed_reward":1,"unobserved_reward":0},{"RT":2552,"time": "2018-08-15 04:00:48pm", "schedule_type": "STATIC", "schedule_name": "random_1", "is_biased_choice":true,"side_choice": "LEFT", "trial_number":81,"observed_reward":0,"unobserved_reward":1},{"RT":2438,"time": "2018-08-15 04:00:50pm", "schedule_type": "STATIC", "schedule_name": "random_1", "is_biased_choice":true,"side_choice": "LEFT", "trial_number":82,"observed_reward":0,"unobserved_reward":1},{"RT":2724,"time": "2018-08-15 04:00:53pm", "schedule_type": "STATIC", "schedule_name": "random_1", "is_biased_choice":true,"side_choice": "LEFT", "trial_number":83,"observed_reward":0,"unobserved_reward":1},{"RT":2427,"time": "2018-08-15 04:00:56pm", "schedule_type": "STATIC", "schedule_name": "random_1", "is_biased_choice":false,"side_choice": "RIGHT", "trial_number":84,"observed_reward":0,"unobserved_reward":0},{"RT":2289,"time": "2018-08-15 04:00:58pm", "schedule_type": "STATIC", "schedule_name": "random_1", "is_biased_choice":false,"side_choice": "RIGHT", "trial_number":85,"observed_reward":0,"unobserved_reward":1},{"RT":2267,"time": "2018-08-15 04:01:00pm", "schedule_type": "STATIC", "schedule_name": "random_1", "is_biased_choice":false,"side_choice": "RIGHT", "trial_number":86,"observed_reward":0,"unobserved_reward":0},{"RT":2323,"time": "2018-08-15 04:01:02pm", "schedule_type": "STATIC", "schedule_name": "random_1", "is_biased_choice":true,"side_choice": "LEFT", "trial_number":87,"observed_reward":0,"unobserved_reward":0},{"RT":2382,"time": "2018-08-15 04:01:05pm", "schedule_type": "STATIC", "schedule_name": "random_1", "is_biased_choice":false,"side_choice": "RIGHT", "trial_number":88,"observed_reward":0,"unobserved_reward":0},{"RT":2359,"time": "2018-08-15 04:01:07pm", "schedule_type": "STATIC", "schedule_name": "random_1", "is_biased_choice":false,"side_choice": "RIGHT", "trial_number":89,"observed_reward":0,"unobserved_reward":0},{"RT":2436,"time": "2018-08-15 04:01:10pm", "schedule_type": "STATIC", "schedule_name": "random_1", "is_biased_choice":true,"side_choice": "LEFT", "trial_number":90,"observed_reward":0,"unobserved_reward":0},{"RT":2313,"time": "2018-08-15 04:01:12pm", "schedule_type": "STATIC", "schedule_name": "random_1", "is_biased_choice":false,"side_choice": "RIGHT", "trial_number":91,"observed_reward":0,"unobserved_reward":0},{"RT":2193,"time": "2018-08-15 04:01:14pm", "schedule_type": "STATIC", "schedule_name": "random_1", "is_biased_choice":false,"side_choice": "RIGHT", "trial_number":92,"observed_reward":0,"unobserved_reward":1},{"RT":2508,"time": "2018-08-15 04:01:17pm", "schedule_type": "STATIC", "schedule_name": "random_1", "is_biased_choice":true,"side_choice": "LEFT", "trial_number":93,"observed_reward":0,"unobserved_reward":0},{"RT":2219,"time": "2018-08-15 04:01:19pm", "schedule_type": "STATIC", "schedule_name": "random_1", "is_biased_choice":false,"side_choice": "RIGHT", "trial_number":94,"observed_reward":0,"unobserved_reward":0},{"RT":2050,"time": "2018-08-15 04:01:21pm", "schedule_type": "STATIC", "schedule_name": "random_1", "is_biased_choice":false,"side_choice": "RIGHT", "trial_number":95,"observed_reward":0,"unobserved_reward":1},{"RT":2540,"time": "2018-08-15 04:01:23pm", "schedule_type": "STATIC", "schedule_name": "random_1", "is_biased_choice":true,"side_choice": "LEFT", "trial_number":96,"observed_reward":0,"unobserved_reward":0},{"RT":2359,"time": "2018-08-15 04:01:26pm", "schedule_type": "STATIC", "schedule_name": "random_1", "is_biased_choice":false,"side_choice": "RIGHT", "trial_number":97,"observed_reward":0,"unobserved_reward":0},{"RT":2517,"time": "2018-08-15 04:01:28pm", "schedule_type": "STATIC", "schedule_name": "random_1", "is_biased_choice":false,"side_choice": "RIGHT", "trial_number":98,"observed_reward":0,"unobserved_reward":0},{"RT":2359,"time": "2018-08-15 04:01:31pm", "schedule_type": "STATIC", "schedule_name": "random_1", "is_biased_choice":false,"side_choice": "RIGHT", "trial_number":99,"observed_reward":0,"unobserved_reward":0},