trial_number, time, schedule_type, schedule_name, is_biased_choice, side_choice, RT, observed_reward, unobserved_reward, biased_reward, unbiased_reward
0,2018-08-15 01:45:06pm, STATIC, random_1, true, LEFT, 31885, 0, 1, 0, 1
1,2018-08-15 01:45:18pm, STATIC, random_1, false, RIGHT, 11839, 0, 0, 0, 0
2,2018-08-15 01:45:24pm, STATIC, random_1, false, RIGHT, 4681, 0, 0, 0, 0
3,2018-08-15 01:45:28pm, STATIC, random_1, false, RIGHT, 5206, 0, 1, 1, 0
4,2018-08-15 01:45:32pm, STATIC, random_1, false, RIGHT, 4176, 1, 1, 1, 1
5,2018-08-15 01:45:34pm, STATIC, random_1, false, RIGHT, 2577, 0, 0, 0, 0
6,2018-08-15 01:45:42pm, STATIC, random_1, false, RIGHT, 6959, 0, 0, 0, 0
7,2018-08-15 01:45:50pm, STATIC, random_1, false, RIGHT, 8609, 0, 1, 1, 0
8,2018-08-15 01:45:55pm, STATIC, random_1, true, LEFT, 4800, 0, 0, 0, 0
9,2018-08-15 01:45:57pm, STATIC, random_1, true, LEFT, 2600, 0, 1, 0, 1
10,2018-08-15 01:46:01pm, STATIC, random_1, true, LEFT, 3304, 0, 0, 0, 0
11,2018-08-15 01:46:06pm, STATIC, random_1, false, RIGHT, 4863, 0, 0, 0, 0
12,2018-08-15 01:46:11pm, STATIC, random_1, false, RIGHT, 5376, 0, 1, 1, 0
13,2018-08-15 01:46:15pm, STATIC, random_1, false, RIGHT, 3576, 0, 1, 1, 0
14,2018-08-15 01:46:32pm, STATIC, random_1, true, LEFT, 17057, 0, 0, 0, 0
15,2018-08-15 01:46:39pm, STATIC, random_1, true, LEFT, 7647, 0, 0, 0, 0
16,2018-08-15 01:46:43pm, STATIC, random_1, true, LEFT, 3944, 0, 0, 0, 0
17,2018-08-15 01:46:46pm, STATIC, random_1, false, RIGHT, 2776, 1, 0, 0, 1
18,2018-08-15 01:46:49pm, STATIC, random_1, false, RIGHT, 3056, 0, 0, 0, 0
19,2018-08-15 01:46:53pm, STATIC, random_1, false, RIGHT, 3465, 0, 0, 0, 0
20,2018-08-15 01:46:56pm, STATIC, random_1, false, RIGHT, 3391, 0, 0, 0, 0
21,2018-08-15 01:47:01pm, STATIC, random_1, false, RIGHT, 5049, 0, 0, 0, 0
22,2018-08-15 01:47:04pm, STATIC, random_1, false, RIGHT, 3175, 1, 0, 0, 1
23,2018-08-15 01:47:08pm, STATIC, random_1, false, RIGHT, 3760, 0, 0, 0, 0
24,2018-08-15 01:47:12pm, STATIC, random_1, false, RIGHT, 3360, 1, 0, 0, 1
25,2018-08-15 01:47:14pm, STATIC, random_1, false, RIGHT, 2936, 0, 0, 0, 0
26,2018-08-15 01:47:17pm, STATIC, random_1, false, RIGHT, 2504, 0, 0, 0, 0
27,2018-08-15 01:47:20pm, STATIC, random_1, false, RIGHT, 3096, 1, 1, 1, 1
28,2018-08-15 01:47:23pm, STATIC, random_1, false, RIGHT, 2904, 1, 0, 0, 1
29,2018-08-15 01:47:28pm, STATIC, random_1, false, RIGHT, 3672, 0, 1, 1, 0
30,2018-08-15 01:47:30pm, STATIC, random_1, false, RIGHT, 3497, 1, 0, 0, 1
31,2018-08-15 01:47:34pm, STATIC, random_1, false, RIGHT, 4040, 1, 0, 0, 1
32,2018-08-15 01:47:37pm, STATIC, random_1, false, RIGHT, 3360, 1, 1, 1, 1
33,2018-08-15 01:47:40pm, STATIC, random_1, false, RIGHT, 3040, 0, 1, 1, 0
34,2018-08-15 01:47:43pm, STATIC, random_1, false, RIGHT, 3295, 0, 0, 0, 0
35,2018-08-15 01:47:47pm, STATIC, random_1, false, RIGHT, 3113, 1, 1, 1, 1
36,2018-08-15 01:47:49pm, STATIC, random_1, false, RIGHT, 2879, 0, 1, 1, 0
37,2018-08-15 01:47:53pm, STATIC, random_1, false, RIGHT, 3656, 0, 0, 0, 0
38,2018-08-15 01:47:56pm, STATIC, random_1, false, RIGHT, 2913, 0, 1, 1, 0
39,2018-08-15 01:47:59pm, STATIC, random_1, false, RIGHT, 2711, 0, 0, 0, 0
40,2018-08-15 01:48:01pm, STATIC, random_1, false, RIGHT, 2481, 1, 1, 1, 1
41,2018-08-15 01:48:12pm, STATIC, random_1, false, RIGHT, 10568, 0, 1, 1, 0
42,2018-08-15 01:48:15pm, STATIC, random_1, false, RIGHT, 2960, 0, 0, 0, 0
43,2018-08-15 01:48:28pm, STATIC, random_1, false, RIGHT, 11415, 0, 0, 0, 0
44,2018-08-15 01:48:30pm, STATIC, random_1, false, RIGHT, 3857, 0, 0, 0, 0
45,2018-08-15 01:48:33pm, STATIC, random_1, false, RIGHT, 3160, 0, 0, 0, 0
46,2018-08-15 01:48:36pm, STATIC, random_1, false, RIGHT, 2511, 0, 1, 1, 0
47,2018-08-15 01:48:38pm, STATIC, random_1, false, RIGHT, 2513, 1, 1, 1, 1
48,2018-08-15 01:48:41pm, STATIC, random_1, false, RIGHT, 2960, 0, 0, 0, 0
49,2018-08-15 01:48:44pm, STATIC, random_1, false, RIGHT, 2488, 0, 1, 1, 0
50,2018-08-15 01:48:46pm, STATIC, random_1, false, RIGHT, 2424, 0, 0, 0, 0
51,2018-08-15 01:48:49pm, STATIC, random_1, false, RIGHT, 2831, 0, 1, 1, 0
52,2018-08-15 01:48:52pm, STATIC, random_1, false, RIGHT, 2840, 0, 0, 0, 0
53,2018-08-15 01:48:54pm, STATIC, random_1, false, RIGHT, 2417, 0, 0, 0, 0
54,2018-08-15 01:48:57pm, STATIC, random_1, false, RIGHT, 2632, 0, 0, 0, 0
55,2018-08-15 01:49:01pm, STATIC, random_1, false, RIGHT, 3703, 1, 0, 0, 1
56,2018-08-15 01:49:04pm, STATIC, random_1, false, RIGHT, 3696, 0, 0, 0, 0
57,2018-08-15 01:49:07pm, STATIC, random_1, false, RIGHT, 2977, 0, 0, 0, 0
58,2018-08-15 01:49:10pm, STATIC, random_1, false, RIGHT, 2856, 1, 0, 0, 1
59,2018-08-15 01:49:14pm, STATIC, random_1, false, RIGHT, 3200, 0, 0, 0, 0
60,2018-08-15 01:49:16pm, STATIC, random_1, false, RIGHT, 2775, 0, 0, 0, 0
61,2018-08-15 01:49:19pm, STATIC, random_1, false, RIGHT, 2625, 0, 0, 0, 0
62,2018-08-15 01:49:21pm, STATIC, random_1, false, RIGHT, 2159, 0, 0, 0, 0
63,2018-08-15 01:49:24pm, STATIC, random_1, false, RIGHT, 2825, 1, 0, 0, 1
64,2018-08-15 01:49:27pm, STATIC, random_1, false, RIGHT, 3040, 0, 1, 1, 0
65,2018-08-15 01:49:31pm, STATIC, random_1, false, RIGHT, 4119, 0, 1, 1, 0
66,2018-08-15 01:49:35pm, STATIC, random_1, false, RIGHT, 4616, 0, 0, 0, 0
67,2018-08-15 01:49:38pm, STATIC, random_1, false, RIGHT, 2360, 1, 0, 0, 1
68,2018-08-15 01:49:41pm, STATIC, random_1, false, RIGHT, 2984, 1, 0, 0, 1
69,2018-08-15 01:49:44pm, STATIC, random_1, false, RIGHT, 3216, 0, 0, 0, 0
70,2018-08-15 01:49:47pm, STATIC, random_1, false, RIGHT, 2929, 0, 0, 0, 0
71,2018-08-15 01:49:50pm, STATIC, random_1, false, RIGHT, 2920, 0, 0, 0, 0
72,2018-08-15 01:49:53pm, STATIC, random_1, false, RIGHT, 3143, 0, 1, 1, 0
73,2018-08-15 01:49:55pm, STATIC, random_1, false, RIGHT, 2400, 1, 0, 0, 1
74,2018-08-15 01:49:58pm, STATIC, random_1, false, RIGHT, 2432, 1, 0, 0, 1
75,2018-08-15 01:50:01pm, STATIC, random_1, false, RIGHT, 3273, 0, 0, 0, 0
76,2018-08-15 01:50:04pm, STATIC, random_1, false, RIGHT, 3128, 0, 1, 1, 0
77,2018-08-15 01:50:07pm, STATIC, random_1, false, RIGHT, 2768, 0, 0, 0, 0
78,2018-08-15 01:50:10pm, STATIC, random_1, false, RIGHT, 2872, 0, 0, 0, 0
79,2018-08-15 01:50:12pm, STATIC, random_1, false, RIGHT, 2384, 0, 0, 0, 0
80,2018-08-15 01:50:16pm, STATIC, random_1, false, RIGHT, 4000, 1, 0, 0, 1
81,2018-08-15 01:50:19pm, STATIC, random_1, false, RIGHT, 2519, 1, 0, 0, 1
82,2018-08-15 01:50:24pm, STATIC, random_1, false, RIGHT, 4960, 1, 0, 0, 1
83,2018-08-15 01:50:27pm, STATIC, random_1, false, RIGHT, 3377, 1, 0, 0, 1
84,2018-08-15 01:50:30pm, STATIC, random_1, false, RIGHT, 2784, 0, 0, 0, 0
85,2018-08-15 01:50:32pm, STATIC, random_1, false, RIGHT, 2575, 0, 1, 1, 0
86,2018-08-15 01:50:35pm, STATIC, random_1, false, RIGHT, 2448, 0, 0, 0, 0
87,2018-08-15 01:50:37pm, STATIC, random_1, false, RIGHT, 2408, 0, 0, 0, 0
88,2018-08-15 01:50:40pm, STATIC, random_1, false, RIGHT, 2536, 0, 0, 0, 0
89,2018-08-15 01:50:43pm, STATIC, random_1, false, RIGHT, 2816, 0, 0, 0, 0
90,2018-08-15 01:50:45pm, STATIC, random_1, false, RIGHT, 2456, 0, 0, 0, 0
91,2018-08-15 01:50:48pm, STATIC, random_1, false, RIGHT, 2656, 0, 0, 0, 0
92,2018-08-15 01:50:51pm, STATIC, random_1, false, RIGHT, 2840, 0, 1, 1, 0
93,2018-08-15 01:50:53pm, STATIC, random_1, false, RIGHT, 2672, 0, 0, 0, 0
94,2018-08-15 01:50:56pm, STATIC, random_1, false, RIGHT, 2568, 0, 0, 0, 0
95,2018-08-15 01:50:59pm, STATIC, random_1, false, RIGHT, 2784, 0, 1, 1, 0
96,2018-08-15 01:51:01pm, STATIC, random_1, false, RIGHT, 2416, 0, 0, 0, 0
97,2018-08-15 01:51:04pm, STATIC, random_1, false, RIGHT, 2616, 0, 0, 0, 0
98,2018-08-15 01:51:07pm, STATIC, random_1, false, RIGHT, 2920, 0, 0, 0, 0
99,2018-08-15 01:51:09pm, STATIC, random_1, false, RIGHT, 2288, 0, 0, 0, 0
