[{"RT":2896,"time": "2018-08-15 03:27:13pm", "schedule_type": "STATIC", "schedule_name": "random_1", "is_biased_choice":true,"side_choice": "RIGHT", "trial_number":0,"observed_reward":0,"unobserved_reward":1},{"RT":4393,"time": "2018-08-15 03:27:18pm", "schedule_type": "STATIC", "schedule_name": "random_1", "is_biased_choice":false,"side_choice": "LEFT", "trial_number":1,"observed_reward":0,"unobserved_reward":0},{"RT":3433,"time": "2018-08-15 03:27:21pm", "schedule_type": "STATIC", "schedule_name": "random_1", "is_biased_choice":true,"side_choice": "RIGHT", "trial_number":2,"observed_reward":0,"unobserved_reward":0},{"RT":2641,"time": "2018-08-15 03:27:24pm", "schedule_type": "STATIC", "schedule_name": "random_1", "is_biased_choice":true,"side_choice": "RIGHT", "trial_number":3,"observed_reward":1,"unobserved_reward":0},{"RT":2978,"time": "2018-08-15 03:27:27pm", "schedule_type": "STATIC", "schedule_name": "random_1", "is_biased_choice":true,"side_choice": "RIGHT", "trial_number":4,"observed_reward":1,"unobserved_reward":1},{"RT":3393,"time": "2018-08-15 03:27:31pm", "schedule_type": "STATIC", "schedule_name": "random_1", "is_biased_choice":true,"side_choice": "RIGHT", "trial_number":5,"observed_reward":0,"unobserved_reward":0},{"RT":3505,"time": "2018-08-15 03:27:34pm", "schedule_type": "STATIC", "schedule_name": "random_1", "is_biased_choice":true,"side_choice": "RIGHT", "trial_number":6,"observed_reward":0,"unobserved_reward":0},{"RT":2497,"time": "2018-08-15 03:27:37pm", "schedule_type": "STATIC", "schedule_name": "random_1", "is_biased_choice":true,"side_choice": "RIGHT", "trial_number":7,"observed_reward":1,"unobserved_reward":0},{"RT":3176,"time": "2018-08-15 03:27:40pm", "schedule_type": "STATIC", "schedule_name": "random_1", "is_biased_choice":true,"side_choice": "RIGHT", "trial_number":8,"observed_reward":0,"unobserved_reward":0},{"RT":3204,"time": "2018-08-15 03:27:43pm", "schedule_type": "STATIC", "schedule_name": "random_1", "is_biased_choice":true,"side_choice": "RIGHT", "trial_number":9,"observed_reward":0,"unobserved_reward":1},{"RT":2584,"time": "2018-08-15 03:27:45pm", "schedule_type": "STATIC", "schedule_name": "random_1", "is_biased_choice":false,"side_choice": "LEFT", "trial_number":10,"observed_reward":0,"unobserved_reward":0},{"RT":2613,"time": "2018-08-15 03:27:48pm", "schedule_type": "STATIC", "schedule_name": "random_1", "is_biased_choice":true,"side_choice": "RIGHT", "trial_number":11,"observed_reward":0,"unobserved_reward":0},{"RT":2553,"time": "2018-08-15 03:27:50pm", "schedule_type": "STATIC", "schedule_name": "random_1", "is_biased_choice":true,"side_choice": "RIGHT", "trial_number":12,"observed_reward":1,"unobserved_reward":0},{"RT":3106,"time": "2018-08-15 03:27:54pm", "schedule_type": "STATIC", "schedule_name": "random_1", "is_biased_choice":true,"side_choice": "RIGHT", "trial_number":13,"observed_reward":1,"unobserved_reward":0},{"RT":3776,"time": "2018-08-15 03:27:57pm", "schedule_type": "STATIC", "schedule_name": "random_1", "is_biased_choice":true,"side_choice": "RIGHT", "trial_number":14,"observed_reward":0,"unobserved_reward":0},{"RT":2992,"time": "2018-08-15 03:28:01pm", "schedule_type": "STATIC", "schedule_name": "random_1", "is_biased_choice":false,"side_choice": "LEFT", "trial_number":15,"observed_reward":0,"unobserved_reward":0},{"RT":2378,"time": "2018-08-15 03:28:03pm", "schedule_type": "STATIC", "schedule_name": "random_1", "is_biased_choice":true,"side_choice": "RIGHT", "trial_number":16,"observed_reward":0,"unobserved_reward":0},{"RT":2562,"time": "2018-08-15 03:28:06pm", "schedule_type": "STATIC", "schedule_name": "random_1", "is_biased_choice":true,"side_choice": "RIGHT", "trial_number":17,"observed_reward":0,"unobserved_reward":1},{"RT":2652,"time": "2018-08-15 03:28:08pm", "schedule_type": "STATIC", "schedule_name": "random_1", "is_biased_choice":true,"side_choice": "RIGHT", "trial_number":18,"observed_reward":0,"unobserved_reward":0},{"RT":2514,"time": "2018-08-15 03:28:11pm", "schedule_type": "STATIC", "schedule_name": "random_1", "is_biased_choice":false,"side_choice": "LEFT", "trial_number":19,"observed_reward":0,"unobserved_reward":0},{"RT":2284,"time": "2018-08-15 03:28:13pm", "schedule_type": "STATIC", "schedule_name": "random_1", "is_biased_choice":true,"side_choice": "RIGHT", "trial_number":20,"observed_reward":0,"unobserved_reward":0},{"RT":2656,"time": "2018-08-15 03:28:16pm", "schedule_type": "STATIC", "schedule_name": "random_1", "is_biased_choice":true,"side_choice": "RIGHT", "trial_number":21,"observed_reward":0,"unobserved_reward":0},{"RT":2557,"time": "2018-08-15 03:28:18pm", "schedule_type": "STATIC", "schedule_name": "random_1", "is_biased_choice":true,"side_choice": "RIGHT", "trial_number":22,"observed_reward":0,"unobserved_reward":1},{"RT":2343,"time": "2018-08-15 03:28:21pm", "schedule_type": "STATIC", "schedule_name": "random_1", "is_biased_choice":true,"side_choice": "RIGHT", "trial_number":23,"observed_reward":0,"unobserved_reward":0},{"RT":3156,"time": "2018-08-15 03:28:23pm", "schedule_type": "STATIC", "schedule_name": "random_1", "is_biased_choice":true,"side_choice": "RIGHT", "trial_number":24,"observed_reward":0,"unobserved_reward":1},{"RT":2313,"time": "2018-08-15 03:28:26pm", "schedule_type": "STATIC", "schedule_name": "random_1", "is_biased_choice":true,"side_choice": "RIGHT", "trial_number":25,"observed_reward":0,"unobserved_reward":0},{"RT":2296,"time": "2018-08-15 03:28:28pm", "schedule_type": "STATIC", "schedule_name": "random_1", "is_biased_choice":true,"side_choice": "RIGHT", "trial_number":26,"observed_reward":0,"unobserved_reward":0},{"RT":2712,"time": "2018-08-15 03:28:31pm", "schedule_type": "STATIC", "schedule_name": "random_1", "is_biased_choice":false,"side_choice": "LEFT", "trial_number":27,"observed_reward":1,"unobserved_reward":1},{"RT":3326,"time": "2018-08-15 03:28:34pm", "schedule_type": "STATIC", "schedule_name": "random_1", "is_biased_choice":false,"side_choice": "LEFT", "trial_number":28,"observed_reward":1,"unobserved_reward":0},{"RT":2567,"time": "2018-08-15 03:28:37pm", "schedule_type": "STATIC", "schedule_name": "random_1", "is_biased_choice":true,"side_choice": "RIGHT", "trial_number":29,"observed_reward":1,"unobserved_reward":0},{"RT":3264,"time": "2018-08-15 03:28:40pm", "schedule_type": "STATIC", "schedule_name": "random_1", "is_biased_choice":true,"side_choice": "RIGHT", "trial_number":30,"observed_reward":0,"unobserved_reward":1},{"RT":3595,"time": "2018-08-15 03:28:44pm", "schedule_type": "STATIC", "schedule_name": "random_1", "is_biased_choice":false,"side_choice": "LEFT", "trial_number":31,"observed_reward":1,"unobserved_reward":0},{"RT":4025,"time": "2018-08-15 03:28:48pm", "schedule_type": "STATIC", "schedule_name": "random_1", "is_biased_choice":true,"side_choice": "RIGHT", "trial_number":32,"observed_reward":1,"unobserved_reward":1},{"RT":2827,"time": "2018-08-15 03:28:51pm", "schedule_type": "STATIC", "schedule_name": "random_1", "is_biased_choice":true,"side_choice": "RIGHT", "trial_number":33,"observed_reward":1,"unobserved_reward":0},{"RT":3007,"time": "2018-08-15 03:28:53pm", "schedule_type": "STATIC", "schedule_name": "random_1", "is_biased_choice":false,"side_choice": "LEFT", "trial_number":34,"observed_reward":0,"unobserved_reward":0},{"RT":2424,"time": "2018-08-15 03:28:56pm", "schedule_type": "STATIC", "schedule_name": "random_1", "is_biased_choice":true,"side_choice": "RIGHT", "trial_number":35,"observed_reward":1,"unobserved_reward":1},{"RT":3162,"time": "2018-08-15 03:28:59pm", "schedule_type": "STATIC", "schedule_name": "random_1", "is_biased_choice":true,"side_choice": "RIGHT", "trial_number":36,"observed_reward":1,"unobserved_reward":0},{"RT":3474,"time": "2018-08-15 03:29:03pm", "schedule_type": "STATIC", "schedule_name": "random_1", "is_biased_choice":false,"side_choice": "LEFT", "trial_number":37,"observed_reward":0,"unobserved_reward":0},{"RT":2619,"time": "2018-08-15 03:29:05pm", "schedule_type": "STATIC", "schedule_name": "random_1", "is_biased_choice":true,"side_choice": "RIGHT", "trial_number":38,"observed_reward":1,"unobserved_reward":0},{"RT":3001,"time": "2018-08-15 03:29:08pm", "schedule_type": "STATIC", "schedule_name": "random_1", "is_biased_choice":true,"side_choice": "RIGHT", "trial_number":39,"observed_reward":0,"unobserved_reward":0},{"RT":2530,"time": "2018-08-15 03:29:11pm", "schedule_type": "STATIC", "schedule_name": "random_1", "is_biased_choice":true,"side_choice": "RIGHT", "trial_number":40,"observed_reward":1,"unobserved_reward":1},{"RT":2577,"time": "2018-08-15 03:29:15pm", "schedule_type": "STATIC", "schedule_name": "random_1", "is_biased_choice":true,"side_choice": "RIGHT", "trial_number":41,"observed_reward":1,"unobserved_reward":0},{"RT":3302,"time": "2018-08-15 03:29:16pm", "schedule_type": "STATIC", "schedule_name": "random_1", "is_biased_choice":true,"side_choice": "RIGHT", "trial_number":42,"observed_reward":0,"unobserved_reward":0},{"RT":3873,"time": "2018-08-15 03:29:21pm", "schedule_type": "STATIC", "schedule_name": "random_1", "is_biased_choice":true,"side_choice": "RIGHT", "trial_number":43,"observed_reward":0,"unobserved_reward":0},{"RT":5104,"time": "2018-08-15 03:29:25pm", "schedule_type": "STATIC", "schedule_name": "random_1", "is_biased_choice":false,"side_choice": "LEFT", "trial_number":44,"observed_reward":0,"unobserved_reward":0},{"RT":2761,"time": "2018-08-15 03:29:29pm", "schedule_type": "STATIC", "schedule_name": "random_1", "is_biased_choice":true,"side_choice": "RIGHT", "trial_number":45,"observed_reward":0,"unobserved_reward":0},{"RT":2769,"time": "2018-08-15 03:29:31pm", "schedule_type": "STATIC", "schedule_name": "random_1", "is_biased_choice":true,"side_choice": "RIGHT", "trial_number":46,"observed_reward":1,"unobserved_reward":0},{"RT":3038,"time": "2018-08-15 03:29:34pm", "schedule_type": "STATIC", "schedule_name": "random_1", "is_biased_choice":true,"side_choice": "RIGHT", "trial_number":47,"observed_reward":1,"unobserved_reward":1},{"RT":2935,"time": "2018-08-15 03:29:37pm", "schedule_type": "STATIC", "schedule_name": "random_1", "is_biased_choice":false,"side_choice": "LEFT", "trial_number":48,"observed_reward":0,"unobserved_reward":0},{"RT":2441,"time": "2018-08-15 03:29:40pm", "schedule_type": "STATIC", "schedule_name": "random_1", "is_biased_choice":true,"side_choice": "RIGHT", "trial_number":49,"observed_reward":1,"unobserved_reward":0},{"RT":4880,"time": "2018-08-15 03:29:44pm", "schedule_type": "STATIC", "schedule_name": "random_1", "is_biased_choice":true,"side_choice": "RIGHT", "trial_number":50,"observed_reward":0,"unobserved_reward":0},{"RT":2828,"time": "2018-08-15 03:29:47pm", "schedule_type": "STATIC", "schedule_name": "random_1", "is_biased_choice":true,"side_choice": "RIGHT", "trial_number":51,"observed_reward":1,"unobserved_reward":0},{"RT":3169,"time": "2018-08-15 03:29:50pm", "schedule_type": "STATIC", "schedule_name": "random_1", "is_biased_choice":true,"side_choice": "RIGHT", "trial_number":52,"observed_reward":0,"unobserved_reward":0},{"RT":3085,"time": "2018-08-15 03:29:54pm", "schedule_type": "STATIC", "schedule_name": "random_1", "is_biased_choice":true,"side_choice": "RIGHT", "trial_number":53,"observed_reward":0,"unobserved_reward":0},{"RT":7527,"time": "2018-08-15 03:30:01pm", "schedule_type": "STATIC", "schedule_name": "random_1", "is_biased_choice":true,"side_choice": "RIGHT", "trial_number":54,"observed_reward":0,"unobserved_reward":0},{"RT":2961,"time": "2018-08-15 03:30:04pm", "schedule_type": "STATIC", "schedule_name": "random_1", "is_biased_choice":true,"side_choice": "RIGHT", "trial_number":55,"observed_reward":0,"unobserved_reward":1},{"RT":2319,"time": "2018-08-15 03:30:06pm", "schedule_type": "STATIC", "schedule_name": "random_1", "is_biased_choice":false,"side_choice": "LEFT", "trial_number":56,"observed_reward":0,"unobserved_reward":0},{"RT":3512,"time": "2018-08-15 03:30:10pm", "schedule_type": "STATIC", "schedule_name": "random_1", "is_biased_choice":true,"side_choice": "RIGHT", "trial_number":57,"observed_reward":0,"unobserved_reward":0},{"RT":2935,"time": "2018-08-15 03:30:13pm", "schedule_type": "STATIC", "schedule_name": "random_1", "is_biased_choice":false,"side_choice": "LEFT", "trial_number":58,"observed_reward":1,"unobserved_reward":0},{"RT":2664,"time": "2018-08-15 03:30:16pm", "schedule_type": "STATIC", "schedule_name": "random_1", "is_biased_choice":true,"side_choice": "RIGHT", "trial_number":59,"observed_reward":0,"unobserved_reward":0},{"RT":2643,"time": "2018-08-15 03:30:18pm", "schedule_type": "STATIC", "schedule_name": "random_1", "is_biased_choice":false,"side_choice": "LEFT", "trial_number":60,"observed_reward":0,"unobserved_reward":0},{"RT":2232,"time": "2018-08-15 03:30:20pm", "schedule_type": "STATIC", "schedule_name": "random_1", "is_biased_choice":true,"side_choice": "RIGHT", "trial_number":61,"observed_reward":0,"unobserved_reward":0},{"RT":2618,"time": "2018-08-15 03:30:23pm", "schedule_type": "STATIC", "schedule_name": "random_1", "is_biased_choice":true,"side_choice": "RIGHT", "trial_number":62,"observed_reward":0,"unobserved_reward":0},{"RT":2688,"time": "2018-08-15 03:30:26pm", "schedule_type": "STATIC", "schedule_name": "random_1", "is_biased_choice":true,"side_choice": "RIGHT", "trial_number":63,"observed_reward":0,"unobserved_reward":1},{"RT":2535,"time": "2018-08-15 03:30:28pm", "schedule_type": "STATIC", "schedule_name": "random_1", "is_biased_choice":true,"side_choice": "RIGHT", "trial_number":64,"observed_reward":1,"unobserved_reward":0},{"RT":4372,"time": "2018-08-15 03:30:33pm", "schedule_type": "STATIC", "schedule_name": "random_1", "is_biased_choice":true,"side_choice": "RIGHT", "trial_number":65,"observed_reward":1,"unobserved_reward":0},{"RT":2752,"time": "2018-08-15 03:30:35pm", "schedule_type": "STATIC", "schedule_name": "random_1", "is_biased_choice":true,"side_choice": "RIGHT", "trial_number":66,"observed_reward":0,"unobserved_reward":0},{"RT":3230,"time": "2018-08-15 03:30:39pm", "schedule_type": "STATIC", "schedule_name": "random_1", "is_biased_choice":true,"side_choice": "RIGHT", "trial_number":67,"observed_reward":0,"unobserved_reward":1},{"RT":3887,"time": "2018-08-15 03:30:42pm", "schedule_type": "STATIC", "schedule_name": "random_1", "is_biased_choice":false,"side_choice": "LEFT", "trial_number":68,"observed_reward":1,"unobserved_reward":0},{"RT":3058,"time": "2018-08-15 03:30:46pm", "schedule_type": "STATIC", "schedule_name": "random_1", "is_biased_choice":true,"side_choice": "RIGHT", "trial_number":69,"observed_reward":0,"unobserved_reward":0},{"RT":2458,"time": "2018-08-15 03:30:48pm", "schedule_type": "STATIC", "schedule_name": "random_1", "is_biased_choice":false,"side_choice": "LEFT", "trial_number":70,"observed_reward":0,"unobserved_reward":0},{"RT":2353,"time": "2018-08-15 03:30:50pm", "schedule_type": "STATIC", "schedule_name": "random_1", "is_biased_choice":true,"side_choice": "RIGHT", "trial_number":71,"observed_reward":0,"unobserved_reward":0},{"RT":2332,"time": "2018-08-15 03:30:52pm", "schedule_type": "STATIC", "schedule_name": "random_1", "is_biased_choice":true,"side_choice": "RIGHT", "trial_number":72,"observed_reward":1,"unobserved_reward":0},{"RT":2363,"time": "2018-08-15 03:30:55pm", "schedule_type": "STATIC", "schedule_name": "random_1", "is_biased_choice":true,"side_choice": "RIGHT", "trial_number":73,"observed_reward":0,"unobserved_reward":1},{"RT":2230,"time": "2018-08-15 03:30:57pm", "schedule_type": "STATIC", "schedule_name": "random_1", "is_biased_choice":false,"side_choice": "LEFT", "trial_number":74,"observed_reward":1,"unobserved_reward":0},{"RT":2312,"time": "2018-08-15 03:31:00pm", "schedule_type": "STATIC", "schedule_name": "random_1", "is_biased_choice":true,"side_choice": "RIGHT", "trial_number":75,"observed_reward":0,"unobserved_reward":0},{"RT":2590,"time": "2018-08-15 03:31:02pm", "schedule_type": "STATIC", "schedule_name": "random_1", "is_biased_choice":true,"side_choice": "RIGHT", "trial_number":76,"observed_reward":1,"unobserved_reward":0},{"RT":2769,"time": "2018-08-15 03:31:05pm", "schedule_type": "STATIC", "schedule_name": "random_1", "is_biased_choice":true,"side_choice": "RIGHT", "trial_number":77,"observed_reward":0,"unobserved_reward":0},{"RT":2355,"time": "2018-08-15 03:31:07pm", "schedule_type": "STATIC", "schedule_name": "random_1", "is_biased_choice":false,"side_choice": "LEFT", "trial_number":78,"observed_reward":0,"unobserved_reward":0},{"RT":2416,"time": "2018-08-15 03:31:10pm", "schedule_type": "STATIC", "schedule_name": "random_1", "is_biased_choice":true,"side_choice": "RIGHT", "trial_number":79,"observed_reward":0,"unobserved_reward":0},{"RT":2298,"time": "2018-08-15 03:31:12pm", "schedule_type": "STATIC", "schedule_name": "random_1", "is_biased_choice":true,"side_choice": "RIGHT", "trial_number":80,"observed_reward":0,"unobserved_reward":1},{"RT":2160,"time": "2018-08-15 03:31:14pm", "schedule_type": "STATIC", "schedule_name": "random_1", "is_biased_choice":false,"side_choice": "LEFT", "trial_number":81,"observed_reward":1,"unobserved_reward":0},{"RT":2967,"time": "2018-08-15 03:31:17pm", "schedule_type": "STATIC", "schedule_name": "random_1", "is_biased_choice":true,"side_choice": "RIGHT", "trial_number":82,"observed_reward":0,"unobserved_reward":1},{"RT":2289,"time": "2018-08-15 03:31:20pm", "schedule_type": "STATIC", "schedule_name": "random_1", "is_biased_choice":false,"side_choice": "LEFT", "trial_number":83,"observed_reward":1,"unobserved_reward":0},{"RT":2368,"time": "2018-08-15 03:31:22pm", "schedule_type": "STATIC", "schedule_name": "random_1", "is_biased_choice":true,"side_choice": "RIGHT", "trial_number":84,"observed_reward":0,"unobserved_reward":0},{"RT":2256,"time": "2018-08-15 03:31:24pm", "schedule_type": "STATIC", "schedule_name": "random_1", "is_biased_choice":false,"side_choice": "LEFT", "trial_number":85,"observed_reward":0,"unobserved_reward":1},{"RT":2217,"time": "2018-08-15 03:31:26pm", "schedule_type": "STATIC", "schedule_name": "random_1", "is_biased_choice":true,"side_choice": "RIGHT", "trial_number":86,"observed_reward":0,"unobserved_reward":0},{"RT":3091,"time": "2018-08-15 03:31:29pm", "schedule_type": "STATIC", "schedule_name": "random_1", "is_biased_choice":true,"side_choice": "RIGHT", "trial_number":87,"observed_reward":0,"unobserved_reward":0},{"RT":2224,"time": "2018-08-15 03:31:31pm", "schedule_type": "STATIC", "schedule_name": "random_1", "is_biased_choice":false,"side_choice": "LEFT", "trial_number":88,"observed_reward":0,"unobserved_reward":0},{"RT":2457,"time": "2018-08-15 03:31:34pm", "schedule_type": "STATIC", "schedule_name": "random_1", "is_biased_choice":true,"side_choice": "RIGHT", "trial_number":89,"observed_reward":0,"unobserved_reward":0},{"RT":2483,"time": "2018-08-15 03:31:36pm", "schedule_type": "STATIC", "schedule_name": "random_1", "is_biased_choice":true,"side_choice": "RIGHT", "trial_number":90,"observed_reward":0,"unobserved_reward":0},{"RT":2265,"time": "2018-08-15 03:31:39pm", "schedule_type": "STATIC", "schedule_name": "random_1", "is_biased_choice":false,"side_choice": "LEFT", "trial_number":91,"observed_reward":0,"unobserved_reward":0},{"RT":2176,"time": "2018-08-15 03:31:41pm", "schedule_type": "STATIC", "schedule_name": "random_1", "is_biased_choice":true,"side_choice": "RIGHT", "trial_number":92,"observed_reward":1,"unobserved_reward":0},{"RT":3494,"time": "2018-08-15 03:31:45pm", "schedule_type": "STATIC", "schedule_name": "random_1", "is_biased_choice":true,"side_choice": "RIGHT", "trial_number":93,"observed_reward":0,"unobserved_reward":0},{"RT":2584,"time": "2018-08-15 03:31:47pm", "schedule_type": "STATIC", "schedule_name": "random_1", "is_biased_choice":true,"side_choice": "RIGHT", "trial_number":94,"observed_reward":0,"unobserved_reward":0},{"RT":2367,"time": "2018-08-15 03:31:49pm", "schedule_type": "STATIC", "schedule_name": "random_1", "is_biased_choice":false,"side_choice": "LEFT", "trial_number":95,"observed_reward":0,"unobserved_reward":1},{"RT":2306,"time": "2018-08-15 03:31:52pm", "schedule_type": "STATIC", "schedule_name": "random_1", "is_biased_choice":true,"side_choice": "RIGHT", "trial_number":96,"observed_reward":0,"unobserved_reward":0},{"RT":2251,"time": "2018-08-15 03:31:54pm", "schedule_type": "STATIC", "schedule_name": "random_1", "is_biased_choice":true,"side_choice": "RIGHT", "trial_number":97,"observed_reward":0,"unobserved_reward":0},{"RT":2218,"time": "2018-08-15 03:31:56pm", "schedule_type": "STATIC", "schedule_name": "random_1", "is_biased_choice":true,"side_choice": "RIGHT", "trial_number":98,"observed_reward":0,"unobserved_reward":0},