trial_number, time, schedule_type, schedule_name, is_biased_choice, side_choice, RT, observed_reward, unobserved_reward, biased_reward, unbiased_reward
0,2018-08-15 02:45:08pm, STATIC, random_1, false, RIGHT, 6214, 1, 0, 0, 1
1,2018-08-15 02:45:16pm, STATIC, random_1, false, RIGHT, 7951, 0, 0, 0, 0
2,2018-08-15 02:45:20pm, STATIC, random_1, false, RIGHT, 4110, 0, 0, 0, 0
3,2018-08-15 02:45:24pm, STATIC, random_1, true, LEFT, 3346, 1, 0, 1, 0
4,2018-08-15 02:45:27pm, STATIC, random_1, false, RIGHT, 3672, 1, 1, 1, 1
5,2018-08-15 02:45:30pm, STATIC, random_1, true, LEFT, 2988, 0, 0, 0, 0
6,2018-08-15 02:45:33pm, STATIC, random_1, false, RIGHT, 3154, 0, 0, 0, 0
7,2018-08-15 02:45:36pm, STATIC, random_1, true, LEFT, 2947, 1, 0, 1, 0
8,2018-08-15 02:45:40pm, STATIC, random_1, false, RIGHT, 3152, 0, 0, 0, 0
9,2018-08-15 02:45:42pm, STATIC, random_1, false, RIGHT, 2764, 1, 0, 0, 1
10,2018-08-15 02:45:45pm, STATIC, random_1, true, LEFT, 3047, 0, 0, 0, 0
11,2018-08-15 02:46:08pm, STATIC, random_1, true, LEFT, 22559, 0, 0, 0, 0
12,2018-08-15 02:46:12pm, STATIC, random_1, false, RIGHT, 3758, 0, 1, 1, 0
13,2018-08-15 02:46:14pm, STATIC, random_1, true, LEFT, 2770, 1, 0, 1, 0
14,2018-08-15 02:46:19pm, STATIC, random_1, true, LEFT, 4352, 0, 0, 0, 0
15,2018-08-15 02:46:22pm, STATIC, random_1, false, RIGHT, 3124, 0, 0, 0, 0
16,2018-08-15 02:46:25pm, STATIC, random_1, true, LEFT, 2964, 0, 0, 0, 0
17,2018-08-15 02:46:28pm, STATIC, random_1, true, LEFT, 3176, 0, 1, 0, 1
18,2018-08-15 02:46:30pm, STATIC, random_1, true, LEFT, 2432, 0, 0, 0, 0
19,2018-08-15 02:46:33pm, STATIC, random_1, true, LEFT, 2776, 0, 0, 0, 0
20,2018-08-15 02:46:36pm, STATIC, random_1, true, LEFT, 2541, 0, 0, 0, 0
21,2018-08-15 02:46:39pm, STATIC, random_1, false, RIGHT, 2886, 0, 0, 0, 0
22,2018-08-15 02:46:41pm, STATIC, random_1, false, RIGHT, 2787, 1, 0, 0, 1
23,2018-08-15 02:46:45pm, STATIC, random_1, false, RIGHT, 3119, 0, 0, 0, 0
24,2018-08-15 02:46:47pm, STATIC, random_1, true, LEFT, 2766, 0, 1, 0, 1
25,2018-08-15 02:46:51pm, STATIC, random_1, false, RIGHT, 3572, 0, 0, 0, 0
26,2018-08-15 02:46:53pm, STATIC, random_1, false, RIGHT, 2640, 0, 0, 0, 0
27,2018-08-15 02:46:56pm, STATIC, random_1, false, RIGHT, 2671, 1, 1, 1, 1
28,2018-08-15 02:46:59pm, STATIC, random_1, true, LEFT, 2993, 0, 1, 0, 1
29,2018-08-15 02:47:03pm, STATIC, random_1, false, RIGHT, 3492, 0, 1, 1, 0
30,2018-08-15 02:47:06pm, STATIC, random_1, true, LEFT, 2924, 0, 1, 0, 1
31,2018-08-15 02:47:08pm, STATIC, random_1, true, LEFT, 2675, 0, 1, 0, 1
32,2018-08-15 02:47:13pm, STATIC, random_1, true, LEFT, 4557, 1, 1, 1, 1
33,2018-08-15 02:47:16pm, STATIC, random_1, true, LEFT, 3201, 1, 0, 1, 0
34,2018-08-15 02:47:20pm, STATIC, random_1, false, RIGHT, 3770, 0, 0, 0, 0
35,2018-08-15 02:47:22pm, STATIC, random_1, true, LEFT, 2553, 1, 1, 1, 1
36,2018-08-15 02:47:26pm, STATIC, random_1, false, RIGHT, 3232, 0, 1, 1, 0
37,2018-08-15 02:47:28pm, STATIC, random_1, true, LEFT, 2916, 0, 0, 0, 0
38,2018-08-15 02:47:31pm, STATIC, random_1, true, LEFT, 2926, 1, 0, 1, 0
39,2018-08-15 02:47:34pm, STATIC, random_1, true, LEFT, 2590, 0, 0, 0, 0
40,2018-08-15 02:47:36pm, STATIC, random_1, true, LEFT, 2416, 1, 1, 1, 1
41,2018-08-15 02:47:40pm, STATIC, random_1, false, RIGHT, 3159, 0, 1, 1, 0
42,2018-08-15 02:47:42pm, STATIC, random_1, false, RIGHT, 2810, 0, 0, 0, 0
43,2018-08-15 02:47:46pm, STATIC, random_1, true, LEFT, 3175, 0, 0, 0, 0
44,2018-08-15 02:47:48pm, STATIC, random_1, true, LEFT, 2847, 0, 0, 0, 0
45,2018-08-15 02:47:51pm, STATIC, random_1, true, LEFT, 2501, 0, 0, 0, 0
46,2018-08-15 02:47:53pm, STATIC, random_1, true, LEFT, 2479, 1, 0, 1, 0
47,2018-08-15 02:47:56pm, STATIC, random_1, true, LEFT, 2705, 1, 1, 1, 1
48,2018-08-15 02:48:00pm, STATIC, random_1, true, LEFT, 3582, 0, 0, 0, 0
49,2018-08-15 02:48:03pm, STATIC, random_1, true, LEFT, 3208, 1, 0, 1, 0
50,2018-08-15 02:48:06pm, STATIC, random_1, true, LEFT, 3049, 0, 0, 0, 0
51,2018-08-15 02:48:09pm, STATIC, random_1, true, LEFT, 3071, 1, 0, 1, 0
52,2018-08-15 02:48:12pm, STATIC, random_1, true, LEFT, 3181, 0, 0, 0, 0
53,2018-08-15 02:48:15pm, STATIC, random_1, true, LEFT, 2587, 0, 0, 0, 0
54,2018-08-15 02:48:17pm, STATIC, random_1, true, LEFT, 2589, 0, 0, 0, 0
55,2018-08-15 02:48:20pm, STATIC, random_1, true, LEFT, 2319, 0, 1, 0, 1
56,2018-08-15 02:48:22pm, STATIC, random_1, true, LEFT, 2475, 0, 0, 0, 0
57,2018-08-15 02:48:25pm, STATIC, random_1, true, LEFT, 2629, 0, 0, 0, 0
58,2018-08-15 02:48:28pm, STATIC, random_1, true, LEFT, 3083, 0, 1, 0, 1
59,2018-08-15 02:48:31pm, STATIC, random_1, true, LEFT, 2858, 0, 0, 0, 0
60,2018-08-15 02:48:39pm, STATIC, random_1, true, LEFT, 8518, 0, 0, 0, 0
61,2018-08-15 02:48:42pm, STATIC, random_1, true, LEFT, 2418, 0, 0, 0, 0
62,2018-08-15 02:48:44pm, STATIC, random_1, true, LEFT, 2725, 0, 0, 0, 0
63,2018-08-15 02:48:48pm, STATIC, random_1, true, LEFT, 3367, 0, 1, 0, 1
64,2018-08-15 02:48:51pm, STATIC, random_1, false, RIGHT, 2957, 0, 1, 1, 0
65,2018-08-15 02:48:53pm, STATIC, random_1, false, RIGHT, 2699, 0, 1, 1, 0
66,2018-08-15 02:48:56pm, STATIC, random_1, true, LEFT, 2669, 0, 0, 0, 0
67,2018-08-15 02:48:59pm, STATIC, random_1, true, LEFT, 2579, 0, 1, 0, 1
68,2018-08-15 02:49:01pm, STATIC, random_1, true, LEFT, 2777, 0, 1, 0, 1
69,2018-08-15 02:49:04pm, STATIC, random_1, true, LEFT, 2575, 0, 0, 0, 0
70,2018-08-15 02:49:07pm, STATIC, random_1, false, RIGHT, 2849, 0, 0, 0, 0
71,2018-08-15 02:49:10pm, STATIC, random_1, true, LEFT, 2855, 0, 0, 0, 0
72,2018-08-15 02:49:12pm, STATIC, random_1, true, LEFT, 2540, 1, 0, 1, 0
73,2018-08-15 02:49:14pm, STATIC, random_1, true, LEFT, 2295, 0, 1, 0, 1
74,2018-08-15 02:49:18pm, STATIC, random_1, true, LEFT, 3564, 0, 1, 0, 1
75,2018-08-15 02:49:21pm, STATIC, random_1, false, RIGHT, 2872, 0, 0, 0, 0
76,2018-08-15 02:49:23pm, STATIC, random_1, true, LEFT, 2493, 1, 0, 1, 0
77,2018-08-15 02:49:27pm, STATIC, random_1, true, LEFT, 3352, 0, 0, 0, 0
78,2018-08-15 02:49:30pm, STATIC, random_1, true, LEFT, 3263, 0, 0, 0, 0
79,2018-08-15 02:49:33pm, STATIC, random_1, false, RIGHT, 2514, 0, 0, 0, 0
80,2018-08-15 02:49:36pm, STATIC, random_1, false, RIGHT, 3366, 1, 0, 0, 1
81,2018-08-15 02:49:41pm, STATIC, random_1, true, LEFT, 4636, 0, 1, 0, 1
82,2018-08-15 02:49:43pm, STATIC, random_1, false, RIGHT, 2560, 1, 0, 0, 1
83,2018-08-15 02:49:46pm, STATIC, random_1, true, LEFT, 2534, 0, 1, 0, 1
84,2018-08-15 02:49:48pm, STATIC, random_1, false, RIGHT, 2674, 0, 0, 0, 0
85,2018-08-15 02:49:51pm, STATIC, random_1, false, RIGHT, 2709, 0, 1, 1, 0
86,2018-08-15 02:49:54pm, STATIC, random_1, true, LEFT, 2586, 0, 0, 0, 0
87,2018-08-15 02:49:57pm, STATIC, random_1, false, RIGHT, 3594, 0, 0, 0, 0
88,2018-08-15 02:50:00pm, STATIC, random_1, true, LEFT, 2701, 0, 0, 0, 0
89,2018-08-15 02:50:03pm, STATIC, random_1, false, RIGHT, 2778, 0, 0, 0, 0
90,2018-08-15 02:50:06pm, STATIC, random_1, false, RIGHT, 2854, 0, 0, 0, 0
91,2018-08-15 02:50:08pm, STATIC, random_1, true, LEFT, 2728, 0, 0, 0, 0
92,2018-08-15 02:50:11pm, STATIC, random_1, true, LEFT, 2614, 1, 0, 1, 0
93,2018-08-15 02:50:13pm, STATIC, random_1, true, LEFT, 2482, 0, 0, 0, 0
94,2018-08-15 02:50:17pm, STATIC, random_1, true, LEFT, 3361, 0, 0, 0, 0
95,2018-08-15 02:50:19pm, STATIC, random_1, true, LEFT, 2513, 1, 0, 1, 0
96,2018-08-15 02:50:22pm, STATIC, random_1, true, LEFT, 2880, 0, 0, 0, 0
97,2018-08-15 02:50:25pm, STATIC, random_1, true, LEFT, 2414, 0, 0, 0, 0
98,2018-08-15 02:50:27pm, STATIC, random_1, true, LEFT, 2598, 0, 0, 0, 0
99,2018-08-15 02:50:30pm, STATIC, random_1, true, LEFT, 2895, 0, 0, 0, 0
