trial_number, time, schedule_type, schedule_name, is_biased_choice, side_choice, RT, observed_reward, unobserved_reward, biased_reward, unbiased_reward
0,2018-07-29 03:45:52pm, STATIC, random_9, true, LEFT, 2800, 0, 1, 0, 1
1,2018-07-29 03:45:56pm, STATIC, random_9, true, LEFT, 3741, 0, 0, 0, 0
2,2018-07-29 03:45:58pm, STATIC, random_9, true, LEFT, 3082, 0, 0, 0, 0
3,2018-07-29 03:46:02pm, STATIC, random_9, true, LEFT, 3559, 0, 0, 0, 0
4,2018-07-29 03:46:06pm, STATIC, random_9, true, LEFT, 3264, 0, 0, 0, 0
5,2018-07-29 03:46:08pm, STATIC, random_9, true, LEFT, 2632, 1, 0, 1, 0
6,2018-07-29 03:46:11pm, STATIC, random_9, true, LEFT, 2732, 0, 0, 0, 0
7,2018-07-29 03:46:13pm, STATIC, random_9, true, LEFT, 2581, 0, 0, 0, 0
8,2018-07-29 03:46:16pm, STATIC, random_9, true, LEFT, 2534, 0, 1, 0, 1
9,2018-07-29 03:46:18pm, STATIC, random_9, true, LEFT, 2561, 0, 0, 0, 0
10,2018-07-29 03:46:21pm, STATIC, random_9, true, LEFT, 2614, 0, 1, 0, 1
11,2018-07-29 03:46:23pm, STATIC, random_9, true, LEFT, 2551, 0, 0, 0, 0
12,2018-07-29 03:46:26pm, STATIC, random_9, true, LEFT, 2519, 0, 0, 0, 0
13,2018-07-29 03:46:29pm, STATIC, random_9, true, LEFT, 2752, 0, 0, 0, 0
14,2018-07-29 03:46:31pm, STATIC, random_9, true, LEFT, 2554, 1, 0, 1, 0
15,2018-07-29 03:46:34pm, STATIC, random_9, true, LEFT, 2518, 1, 1, 1, 1
16,2018-07-29 03:46:36pm, STATIC, random_9, true, LEFT, 2620, 0, 1, 0, 1
17,2018-07-29 03:46:39pm, STATIC, random_9, true, LEFT, 2512, 0, 0, 0, 0
18,2018-07-29 03:46:41pm, STATIC, random_9, true, LEFT, 2488, 0, 0, 0, 0
19,2018-07-29 03:46:45pm, STATIC, random_9, true, LEFT, 3302, 0, 0, 0, 0
20,2018-07-29 03:46:47pm, STATIC, random_9, true, LEFT, 2701, 1, 0, 1, 0
21,2018-07-29 03:46:50pm, STATIC, random_9, true, LEFT, 2990, 0, 0, 0, 0
22,2018-07-29 03:46:55pm, STATIC, random_9, true, LEFT, 4147, 0, 0, 0, 0
23,2018-07-29 03:46:57pm, STATIC, random_9, true, LEFT, 2519, 0, 0, 0, 0
24,2018-07-29 03:47:00pm, STATIC, random_9, true, LEFT, 2439, 0, 0, 0, 0
25,2018-07-29 03:47:02pm, STATIC, random_9, true, LEFT, 2412, 0, 1, 0, 1
26,2018-07-29 03:47:04pm, STATIC, random_9, true, LEFT, 2315, 0, 0, 0, 0
27,2018-07-29 03:47:07pm, STATIC, random_9, true, LEFT, 2517, 0, 0, 0, 0
28,2018-07-29 03:47:09pm, STATIC, random_9, true, LEFT, 2426, 0, 0, 0, 0
29,2018-07-29 03:47:12pm, STATIC, random_9, true, LEFT, 2750, 0, 0, 0, 0
30,2018-07-29 03:47:15pm, STATIC, random_9, true, LEFT, 2584, 0, 1, 0, 1
31,2018-07-29 03:47:17pm, STATIC, random_9, true, LEFT, 2803, 0, 1, 0, 1
32,2018-07-29 03:47:20pm, STATIC, random_9, true, LEFT, 2567, 0, 1, 0, 1
33,2018-07-29 03:47:22pm, STATIC, random_9, true, LEFT, 2565, 0, 0, 0, 0
34,2018-07-29 03:47:25pm, STATIC, random_9, true, LEFT, 2434, 0, 0, 0, 0
35,2018-07-29 03:47:28pm, STATIC, random_9, true, LEFT, 2609, 0, 0, 0, 0
36,2018-07-29 03:47:31pm, STATIC, random_9, true, LEFT, 3209, 0, 1, 0, 1
37,2018-07-29 03:47:34pm, STATIC, random_9, true, LEFT, 3011, 0, 0, 0, 0
38,2018-07-29 03:47:37pm, STATIC, random_9, true, LEFT, 3434, 1, 1, 1, 1
39,2018-07-29 03:47:40pm, STATIC, random_9, true, LEFT, 2651, 0, 0, 0, 0
40,2018-07-29 03:47:42pm, STATIC, random_9, true, LEFT, 2593, 0, 0, 0, 0
41,2018-07-29 03:47:45pm, STATIC, random_9, true, LEFT, 2362, 1, 0, 1, 0
42,2018-07-29 03:47:50pm, STATIC, random_9, true, LEFT, 5219, 1, 1, 1, 1
43,2018-07-29 03:47:53pm, STATIC, random_9, true, LEFT, 2624, 0, 0, 0, 0
44,2018-07-29 03:47:55pm, STATIC, random_9, true, LEFT, 2393, 1, 0, 1, 0
45,2018-07-29 03:47:58pm, STATIC, random_9, true, LEFT, 2704, 0, 0, 0, 0
46,2018-07-29 03:48:00pm, STATIC, random_9, true, LEFT, 2604, 0, 0, 0, 0
47,2018-07-29 03:48:03pm, STATIC, random_9, true, LEFT, 2680, 1, 0, 1, 0
48,2018-07-29 03:48:06pm, STATIC, random_9, true, LEFT, 2825, 1, 0, 1, 0
49,2018-07-29 03:48:09pm, STATIC, random_9, true, LEFT, 2704, 0, 0, 0, 0
50,2018-07-29 03:48:11pm, STATIC, random_9, true, LEFT, 2725, 0, 0, 0, 0
51,2018-07-29 03:48:14pm, STATIC, random_9, true, LEFT, 2453, 0, 0, 0, 0
52,2018-07-29 03:48:16pm, STATIC, random_9, true, LEFT, 2551, 0, 0, 0, 0
53,2018-07-29 03:48:19pm, STATIC, random_9, true, LEFT, 2563, 1, 0, 1, 0
54,2018-07-29 03:48:22pm, STATIC, random_9, true, LEFT, 2738, 1, 0, 1, 0
55,2018-07-29 03:48:24pm, STATIC, random_9, true, LEFT, 2592, 0, 0, 0, 0
56,2018-07-29 03:48:27pm, STATIC, random_9, true, LEFT, 2526, 1, 0, 1, 0
57,2018-07-29 03:48:29pm, STATIC, random_9, true, LEFT, 2496, 0, 0, 0, 0
58,2018-07-29 03:48:32pm, STATIC, random_9, true, LEFT, 2438, 0, 0, 0, 0
59,2018-07-29 03:48:34pm, STATIC, random_9, true, LEFT, 2482, 0, 0, 0, 0
60,2018-07-29 03:48:37pm, STATIC, random_9, true, LEFT, 2570, 0, 0, 0, 0
61,2018-07-29 03:48:39pm, STATIC, random_9, true, LEFT, 2409, 0, 1, 0, 1
62,2018-07-29 03:48:42pm, STATIC, random_9, true, LEFT, 2561, 1, 0, 1, 0
63,2018-07-29 03:48:44pm, STATIC, random_9, true, LEFT, 2521, 0, 1, 0, 1
64,2018-07-29 03:48:47pm, STATIC, random_9, true, LEFT, 2425, 0, 1, 0, 1
65,2018-07-29 03:48:49pm, STATIC, random_9, true, LEFT, 2420, 0, 0, 0, 0
66,2018-07-29 03:48:51pm, STATIC, random_9, true, LEFT, 2442, 1, 0, 1, 0
67,2018-07-29 03:48:54pm, STATIC, random_9, true, LEFT, 2481, 0, 1, 0, 1
68,2018-07-29 03:48:57pm, STATIC, random_9, true, LEFT, 2732, 0, 0, 0, 0
69,2018-07-29 03:49:00pm, STATIC, random_9, true, LEFT, 3356, 0, 1, 0, 1
70,2018-07-29 03:49:04pm, STATIC, random_9, true, LEFT, 3448, 0, 1, 0, 1
71,2018-07-29 03:49:06pm, STATIC, random_9, true, LEFT, 2888, 0, 0, 0, 0
72,2018-07-29 03:49:10pm, STATIC, random_9, true, LEFT, 3087, 0, 0, 0, 0
73,2018-07-29 03:49:12pm, STATIC, random_9, true, LEFT, 2816, 0, 1, 0, 1
74,2018-07-29 03:49:15pm, STATIC, random_9, true, LEFT, 2451, 0, 1, 0, 1
75,2018-07-29 03:49:18pm, STATIC, random_9, true, LEFT, 3692, 0, 1, 0, 1
76,2018-07-29 03:49:21pm, STATIC, random_9, true, LEFT, 2431, 0, 0, 0, 0
77,2018-07-29 03:49:23pm, STATIC, random_9, true, LEFT, 2543, 0, 0, 0, 0
78,2018-07-29 03:49:26pm, STATIC, random_9, true, LEFT, 2396, 1, 0, 1, 0
79,2018-07-29 03:49:29pm, STATIC, random_9, true, LEFT, 2902, 0, 0, 0, 0
80,2018-07-29 03:49:31pm, STATIC, random_9, true, LEFT, 2423, 0, 1, 0, 1
81,2018-07-29 03:49:34pm, STATIC, random_9, true, LEFT, 2620, 1, 0, 1, 0
82,2018-07-29 03:49:36pm, STATIC, random_9, true, LEFT, 2636, 0, 1, 0, 1
83,2018-07-29 03:49:39pm, STATIC, random_9, true, LEFT, 2989, 1, 0, 1, 0
84,2018-07-29 03:49:42pm, STATIC, random_9, true, LEFT, 2747, 0, 0, 0, 0
85,2018-07-29 03:49:45pm, STATIC, random_9, true, LEFT, 2570, 0, 0, 0, 0
86,2018-07-29 03:49:47pm, STATIC, random_9, true, LEFT, 2490, 0, 0, 0, 0
87,2018-07-29 03:49:50pm, STATIC, random_9, true, LEFT, 2633, 1, 0, 1, 0
88,2018-07-29 03:49:52pm, STATIC, random_9, true, LEFT, 2725, 0, 0, 0, 0
89,2018-07-29 03:49:55pm, STATIC, random_9, true, LEFT, 2665, 0, 0, 0, 0
90,2018-07-29 03:49:58pm, STATIC, random_9, true, LEFT, 2576, 1, 0, 1, 0
91,2018-07-29 03:50:00pm, STATIC, random_9, true, LEFT, 2525, 1, 0, 1, 0
92,2018-07-29 03:50:03pm, STATIC, random_9, true, LEFT, 2458, 1, 0, 1, 0
93,2018-07-29 03:50:05pm, STATIC, random_9, true, LEFT, 2398, 1, 0, 1, 0
94,2018-07-29 03:50:08pm, STATIC, random_9, true, LEFT, 2446, 0, 1, 0, 1
95,2018-07-29 03:50:10pm, STATIC, random_9, true, LEFT, 2496, 1, 0, 1, 0
96,2018-07-29 03:50:13pm, STATIC, random_9, true, LEFT, 2766, 0, 0, 0, 0
97,2018-07-29 03:50:15pm, STATIC, random_9, true, LEFT, 2438, 1, 0, 1, 0
98,2018-07-29 03:50:18pm, STATIC, random_9, true, LEFT, 2487, 0, 1, 0, 1
99,2018-07-29 03:50:20pm, STATIC, random_9, true, LEFT, 2470, 0, 0, 0, 0
