[{"RT":3377,"time": "2018-08-15 03:43:36pm", "schedule_type": "STATIC", "schedule_name": "random_9", "is_biased_choice":false,"side_choice": "LEFT", "trial_number":0,"observed_reward":1,"unobserved_reward":0},{"RT":3798,"time": "2018-08-15 03:43:40pm", "schedule_type": "STATIC", "schedule_name": "random_9", "is_biased_choice":false,"side_choice": "LEFT", "trial_number":1,"observed_reward":0,"unobserved_reward":0},{"RT":2681,"time": "2018-08-15 03:43:43pm", "schedule_type": "STATIC", "schedule_name": "random_9", "is_biased_choice":false,"side_choice": "LEFT", "trial_number":2,"observed_reward":0,"unobserved_reward":0},{"RT":2411,"time": "2018-08-15 03:43:45pm", "schedule_type": "STATIC", "schedule_name": "random_9", "is_biased_choice":true,"side_choice": "RIGHT", "trial_number":3,"observed_reward":0,"unobserved_reward":0},{"RT":2348,"time": "2018-08-15 03:43:47pm", "schedule_type": "STATIC", "schedule_name": "random_9", "is_biased_choice":true,"side_choice": "RIGHT", "trial_number":4,"observed_reward":0,"unobserved_reward":0},{"RT":2299,"time": "2018-08-15 03:43:50pm", "schedule_type": "STATIC", "schedule_name": "random_9", "is_biased_choice":true,"side_choice": "RIGHT", "trial_number":5,"observed_reward":1,"unobserved_reward":0},{"RT":2346,"time": "2018-08-15 03:43:52pm", "schedule_type": "STATIC", "schedule_name": "random_9", "is_biased_choice":true,"side_choice": "RIGHT", "trial_number":6,"observed_reward":0,"unobserved_reward":0},{"RT":2422,"time": "2018-08-15 03:43:54pm", "schedule_type": "STATIC", "schedule_name": "random_9", "is_biased_choice":false,"side_choice": "LEFT", "trial_number":7,"observed_reward":0,"unobserved_reward":0},{"RT":2425,"time": "2018-08-15 03:43:57pm", "schedule_type": "STATIC", "schedule_name": "random_9", "is_biased_choice":false,"side_choice": "LEFT", "trial_number":8,"observed_reward":1,"unobserved_reward":0},{"RT":2445,"time": "2018-08-15 03:43:59pm", "schedule_type": "STATIC", "schedule_name": "random_9", "is_biased_choice":true,"side_choice": "RIGHT", "trial_number":9,"observed_reward":0,"unobserved_reward":0},{"RT":2274,"time": "2018-08-15 03:44:02pm", "schedule_type": "STATIC", "schedule_name": "random_9", "is_biased_choice":true,"side_choice": "RIGHT", "trial_number":10,"observed_reward":0,"unobserved_reward":1},{"RT":2413,"time": "2018-08-15 03:44:04pm", "schedule_type": "STATIC", "schedule_name": "random_9", "is_biased_choice":true,"side_choice": "RIGHT", "trial_number":11,"observed_reward":0,"unobserved_reward":0},{"RT":2195,"time": "2018-08-15 03:44:06pm", "schedule_type": "STATIC", "schedule_name": "random_9", "is_biased_choice":true,"side_choice": "RIGHT", "trial_number":12,"observed_reward":0,"unobserved_reward":0},{"RT":2218,"time": "2018-08-15 03:44:08pm", "schedule_type": "STATIC", "schedule_name": "random_9", "is_biased_choice":true,"side_choice": "RIGHT", "trial_number":13,"observed_reward":0,"unobserved_reward":0},{"RT":2281,"time": "2018-08-15 03:44:11pm", "schedule_type": "STATIC", "schedule_name": "random_9", "is_biased_choice":false,"side_choice": "LEFT", "trial_number":14,"observed_reward":0,"unobserved_reward":1},{"RT":2296,"time": "2018-08-15 03:44:13pm", "schedule_type": "STATIC", "schedule_name": "random_9", "is_biased_choice":false,"side_choice": "LEFT", "trial_number":15,"observed_reward":1,"unobserved_reward":1},{"RT":2357,"time": "2018-08-15 03:44:15pm", "schedule_type": "STATIC", "schedule_name": "random_9", "is_biased_choice":false,"side_choice": "LEFT", "trial_number":16,"observed_reward":1,"unobserved_reward":0},{"RT":2308,"time": "2018-08-15 03:44:18pm", "schedule_type": "STATIC", "schedule_name": "random_9", "is_biased_choice":true,"side_choice": "RIGHT", "trial_number":17,"observed_reward":0,"unobserved_reward":0},{"RT":2187,"time": "2018-08-15 03:44:20pm", "schedule_type": "STATIC", "schedule_name": "random_9", "is_biased_choice":true,"side_choice": "RIGHT", "trial_number":18,"observed_reward":0,"unobserved_reward":0},{"RT":2164,"time": "2018-08-15 03:44:22pm", "schedule_type": "STATIC", "schedule_name": "random_9", "is_biased_choice":false,"side_choice": "LEFT", "trial_number":19,"observed_reward":0,"unobserved_reward":0},{"RT":2385,"time": "2018-08-15 03:44:24pm", "schedule_type": "STATIC", "schedule_name": "random_9", "is_biased_choice":false,"side_choice": "LEFT", "trial_number":20,"observed_reward":0,"unobserved_reward":1},{"RT":2832,"time": "2018-08-15 03:44:27pm", "schedule_type": "STATIC", "schedule_name": "random_9", "is_biased_choice":false,"side_choice": "LEFT", "trial_number":21,"observed_reward":0,"unobserved_reward":0},{"RT":2301,"time": "2018-08-15 03:44:30pm", "schedule_type": "STATIC", "schedule_name": "random_9", "is_biased_choice":true,"side_choice": "RIGHT", "trial_number":22,"observed_reward":0,"unobserved_reward":0},{"RT":2355,"time": "2018-08-15 03:44:32pm", "schedule_type": "STATIC", "schedule_name": "random_9", "is_biased_choice":false,"side_choice": "LEFT", "trial_number":23,"observed_reward":0,"unobserved_reward":0},{"RT":2381,"time": "2018-08-15 03:44:34pm", "schedule_type": "STATIC", "schedule_name": "random_9", "is_biased_choice":false,"side_choice": "LEFT", "trial_number":24,"observed_reward":0,"unobserved_reward":0},{"RT":2239,"time": "2018-08-15 03:44:37pm", "schedule_type": "STATIC", "schedule_name": "random_9", "is_biased_choice":true,"side_choice": "RIGHT", "trial_number":25,"observed_reward":0,"unobserved_reward":1},{"RT":4151,"time": "2018-08-15 03:44:41pm", "schedule_type": "STATIC", "schedule_name": "random_9", "is_biased_choice":true,"side_choice": "RIGHT", "trial_number":26,"observed_reward":0,"unobserved_reward":0},{"RT":2269,"time": "2018-08-15 03:44:43pm", "schedule_type": "STATIC", "schedule_name": "random_9", "is_biased_choice":false,"side_choice": "LEFT", "trial_number":27,"observed_reward":0,"unobserved_reward":0},{"RT":2330,"time": "2018-08-15 03:44:45pm", "schedule_type": "STATIC", "schedule_name": "random_9", "is_biased_choice":false,"side_choice": "LEFT", "trial_number":28,"observed_reward":0,"unobserved_reward":0},{"RT":2249,"time": "2018-08-15 03:44:48pm", "schedule_type": "STATIC", "schedule_name": "random_9", "is_biased_choice":false,"side_choice": "LEFT", "trial_number":29,"observed_reward":0,"unobserved_reward":0},{"RT":2762,"time": "2018-08-15 03:44:50pm", "schedule_type": "STATIC", "schedule_name": "random_9", "is_biased_choice":true,"side_choice": "RIGHT", "trial_number":30,"observed_reward":0,"unobserved_reward":1},{"RT":2237,"time": "2018-08-15 03:44:53pm", "schedule_type": "STATIC", "schedule_name": "random_9", "is_biased_choice":false,"side_choice": "LEFT", "trial_number":31,"observed_reward":1,"unobserved_reward":0},{"RT":2262,"time": "2018-08-15 03:44:55pm", "schedule_type": "STATIC", "schedule_name": "random_9", "is_biased_choice":false,"side_choice": "LEFT", "trial_number":32,"observed_reward":1,"unobserved_reward":0},{"RT":2608,"time": "2018-08-15 03:44:57pm", "schedule_type": "STATIC", "schedule_name": "random_9", "is_biased_choice":false,"side_choice": "LEFT", "trial_number":33,"observed_reward":0,"unobserved_reward":0},{"RT":3877,"time": "2018-08-15 03:45:01pm", "schedule_type": "STATIC", "schedule_name": "random_9", "is_biased_choice":false,"side_choice": "LEFT", "trial_number":34,"observed_reward":0,"unobserved_reward":0},{"RT":2385,"time": "2018-08-15 03:45:04pm", "schedule_type": "STATIC", "schedule_name": "random_9", "is_biased_choice":false,"side_choice": "LEFT", "trial_number":35,"observed_reward":0,"unobserved_reward":0},{"RT":2571,"time": "2018-08-15 03:45:06pm", "schedule_type": "STATIC", "schedule_name": "random_9", "is_biased_choice":true,"side_choice": "RIGHT", "trial_number":36,"observed_reward":0,"unobserved_reward":1},{"RT":2226,"time": "2018-08-15 03:45:08pm", "schedule_type": "STATIC", "schedule_name": "random_9", "is_biased_choice":false,"side_choice": "LEFT", "trial_number":37,"observed_reward":0,"unobserved_reward":0},{"RT":2398,"time": "2018-08-15 03:45:11pm", "schedule_type": "STATIC", "schedule_name": "random_9", "is_biased_choice":false,"side_choice": "LEFT", "trial_number":38,"observed_reward":1,"unobserved_reward":1},{"RT":2370,"time": "2018-08-15 03:45:13pm", "schedule_type": "STATIC", "schedule_name": "random_9", "is_biased_choice":false,"side_choice": "LEFT", "trial_number":39,"observed_reward":0,"unobserved_reward":0},{"RT":2237,"time": "2018-08-15 03:45:15pm", "schedule_type": "STATIC", "schedule_name": "random_9", "is_biased_choice":true,"side_choice": "RIGHT", "trial_number":40,"observed_reward":0,"unobserved_reward":0},{"RT":2220,"time": "2018-08-15 03:45:18pm", "schedule_type": "STATIC", "schedule_name": "random_9", "is_biased_choice":false,"side_choice": "LEFT", "trial_number":41,"observed_reward":0,"unobserved_reward":1},{"RT":2232,"time": "2018-08-15 03:45:20pm", "schedule_type": "STATIC", "schedule_name": "random_9", "is_biased_choice":false,"side_choice": "LEFT", "trial_number":42,"observed_reward":1,"unobserved_reward":1},{"RT":2232,"time": "2018-08-15 03:45:22pm", "schedule_type": "STATIC", "schedule_name": "random_9", "is_biased_choice":false,"side_choice": "LEFT", "trial_number":43,"observed_reward":0,"unobserved_reward":0},{"RT":2436,"time": "2018-08-15 03:45:25pm", "schedule_type": "STATIC", "schedule_name": "random_9", "is_biased_choice":true,"side_choice": "RIGHT", "trial_number":44,"observed_reward":1,"unobserved_reward":0},{"RT":2367,"time": "2018-08-15 03:45:27pm", "schedule_type": "STATIC", "schedule_name": "random_9", "is_biased_choice":false,"side_choice": "LEFT", "trial_number":45,"observed_reward":0,"unobserved_reward":0},{"RT":2236,"time": "2018-08-15 03:45:29pm", "schedule_type": "STATIC", "schedule_name": "random_9", "is_biased_choice":false,"side_choice": "LEFT", "trial_number":46,"observed_reward":0,"unobserved_reward":0},{"RT":2228,"time": "2018-08-15 03:45:31pm", "schedule_type": "STATIC", "schedule_name": "random_9", "is_biased_choice":false,"side_choice": "LEFT", "trial_number":47,"observed_reward":0,"unobserved_reward":1},{"RT":2328,"time": "2018-08-15 03:45:34pm", "schedule_type": "STATIC", "schedule_name": "random_9", "is_biased_choice":true,"side_choice": "RIGHT", "trial_number":48,"observed_reward":1,"unobserved_reward":0},{"RT":2211,"time": "2018-08-15 03:45:36pm", "schedule_type": "STATIC", "schedule_name": "random_9", "is_biased_choice":true,"side_choice": "RIGHT", "trial_number":49,"observed_reward":0,"unobserved_reward":0},{"RT":2228,"time": "2018-08-15 03:45:38pm", "schedule_type": "STATIC", "schedule_name": "random_9", "is_biased_choice":false,"side_choice": "LEFT", "trial_number":50,"observed_reward":0,"unobserved_reward":0},{"RT":2160,"time": "2018-08-15 03:45:40pm", "schedule_type": "STATIC", "schedule_name": "random_9", "is_biased_choice":false,"side_choice": "LEFT", "trial_number":51,"observed_reward":0,"unobserved_reward":0},{"RT":2353,"time": "2018-08-15 03:45:43pm", "schedule_type": "STATIC", "schedule_name": "random_9", "is_biased_choice":false,"side_choice": "LEFT", "trial_number":52,"observed_reward":0,"unobserved_reward":0},{"RT":2312,"time": "2018-08-15 03:45:45pm", "schedule_type": "STATIC", "schedule_name": "random_9", "is_biased_choice":true,"side_choice": "RIGHT", "trial_number":53,"observed_reward":1,"unobserved_reward":0},{"RT":2334,"time": "2018-08-15 03:45:47pm", "schedule_type": "STATIC", "schedule_name": "random_9", "is_biased_choice":true,"side_choice": "RIGHT", "trial_number":54,"observed_reward":1,"unobserved_reward":0},{"RT":2208,"time": "2018-08-15 03:45:50pm", "schedule_type": "STATIC", "schedule_name": "random_9", "is_biased_choice":true,"side_choice": "RIGHT", "trial_number":55,"observed_reward":0,"unobserved_reward":0},{"RT":2959,"time": "2018-08-15 03:45:52pm", "schedule_type": "STATIC", "schedule_name": "random_9", "is_biased_choice":false,"side_choice": "LEFT", "trial_number":56,"observed_reward":0,"unobserved_reward":1},{"RT":2407,"time": "2018-08-15 03:45:55pm", "schedule_type": "STATIC", "schedule_name": "random_9", "is_biased_choice":false,"side_choice": "LEFT", "trial_number":57,"observed_reward":0,"unobserved_reward":0},{"RT":2502,"time": "2018-08-15 03:45:57pm", "schedule_type": "STATIC", "schedule_name": "random_9", "is_biased_choice":false,"side_choice": "LEFT", "trial_number":58,"observed_reward":0,"unobserved_reward":0},{"RT":2563,"time": "2018-08-15 03:46:00pm", "schedule_type": "STATIC", "schedule_name": "random_9", "is_biased_choice":true,"side_choice": "RIGHT", "trial_number":59,"observed_reward":0,"unobserved_reward":0},{"RT":2190,"time": "2018-08-15 03:46:02pm", "schedule_type": "STATIC", "schedule_name": "random_9", "is_biased_choice":true,"side_choice": "RIGHT", "trial_number":60,"observed_reward":0,"unobserved_reward":0},{"RT":2206,"time": "2018-08-15 03:46:04pm", "schedule_type": "STATIC", "schedule_name": "random_9", "is_biased_choice":false,"side_choice": "LEFT", "trial_number":61,"observed_reward":1,"unobserved_reward":0},{"RT":2225,"time": "2018-08-15 03:46:07pm", "schedule_type": "STATIC", "schedule_name": "random_9", "is_biased_choice":false,"side_choice": "LEFT", "trial_number":62,"observed_reward":0,"unobserved_reward":1},{"RT":2504,"time": "2018-08-15 03:46:09pm", "schedule_type": "STATIC", "schedule_name": "random_9", "is_biased_choice":false,"side_choice": "LEFT", "trial_number":63,"observed_reward":1,"unobserved_reward":0},{"RT":2251,"time": "2018-08-15 03:46:11pm", "schedule_type": "STATIC", "schedule_name": "random_9", "is_biased_choice":false,"side_choice": "LEFT", "trial_number":64,"observed_reward":1,"unobserved_reward":0},{"RT":2143,"time": "2018-08-15 03:46:13pm", "schedule_type": "STATIC", "schedule_name": "random_9", "is_biased_choice":false,"side_choice": "LEFT", "trial_number":65,"observed_reward":0,"unobserved_reward":0},{"RT":2147,"time": "2018-08-15 03:46:16pm", "schedule_type": "STATIC", "schedule_name": "random_9", "is_biased_choice":true,"side_choice": "RIGHT", "trial_number":66,"observed_reward":1,"unobserved_reward":0},{"RT":2178,"time": "2018-08-15 03:46:18pm", "schedule_type": "STATIC", "schedule_name": "random_9", "is_biased_choice":true,"side_choice": "RIGHT", "trial_number":67,"observed_reward":0,"unobserved_reward":1},{"RT":2617,"time": "2018-08-15 03:46:20pm", "schedule_type": "STATIC", "schedule_name": "random_9", "is_biased_choice":false,"side_choice": "LEFT", "trial_number":68,"observed_reward":0,"unobserved_reward":0},{"RT":2280,"time": "2018-08-15 03:46:23pm", "schedule_type": "STATIC", "schedule_name": "random_9", "is_biased_choice":false,"side_choice": "LEFT", "trial_number":69,"observed_reward":1,"unobserved_reward":0},{"RT":2126,"time": "2018-08-15 03:46:25pm", "schedule_type": "STATIC", "schedule_name": "random_9", "is_biased_choice":false,"side_choice": "LEFT", "trial_number":70,"observed_reward":1,"unobserved_reward":0},{"RT":2316,"time": "2018-08-15 03:46:27pm", "schedule_type": "STATIC", "schedule_name": "random_9", "is_biased_choice":false,"side_choice": "LEFT", "trial_number":71,"observed_reward":0,"unobserved_reward":0},{"RT":2135,"time": "2018-08-15 03:46:29pm", "schedule_type": "STATIC", "schedule_name": "random_9", "is_biased_choice":true,"side_choice": "RIGHT", "trial_number":72,"observed_reward":0,"unobserved_reward":0},{"RT":2759,"time": "2018-08-15 03:46:32pm", "schedule_type": "STATIC", "schedule_name": "random_9", "is_biased_choice":true,"side_choice": "RIGHT", "trial_number":73,"observed_reward":0,"unobserved_reward":1},{"RT":2097,"time": "2018-08-15 03:46:34pm", "schedule_type": "STATIC", "schedule_name": "random_9", "is_biased_choice":false,"side_choice": "LEFT", "trial_number":74,"observed_reward":1,"unobserved_reward":0},{"RT":2155,"time": "2018-08-15 03:46:36pm", "schedule_type": "STATIC", "schedule_name": "random_9", "is_biased_choice":false,"side_choice": "LEFT", "trial_number":75,"observed_reward":1,"unobserved_reward":0},{"RT":2336,"time": "2018-08-15 03:46:39pm", "schedule_type": "STATIC", "schedule_name": "random_9", "is_biased_choice":true,"side_choice": "RIGHT", "trial_number":76,"observed_reward":0,"unobserved_reward":0},{"RT":2315,"time": "2018-08-15 03:46:41pm", "schedule_type": "STATIC", "schedule_name": "random_9", "is_biased_choice":false,"side_choice": "LEFT", "trial_number":77,"observed_reward":0,"unobserved_reward":0},{"RT":2633,"time": "2018-08-15 03:46:44pm", "schedule_type": "STATIC", "schedule_name": "random_9", "is_biased_choice":false,"side_choice": "LEFT", "trial_number":78,"observed_reward":0,"unobserved_reward":1},{"RT":2699,"time": "2018-08-15 03:46:46pm", "schedule_type": "STATIC", "schedule_name": "random_9", "is_biased_choice":false,"side_choice": "LEFT", "trial_number":79,"observed_reward":0,"unobserved_reward":0},{"RT":2191,"time": "2018-08-15 03:46:48pm", "schedule_type": "STATIC", "schedule_name": "random_9", "is_biased_choice":true,"side_choice": "RIGHT", "trial_number":80,"observed_reward":0,"unobserved_reward":1},{"RT":2254,"time": "2018-08-15 03:46:51pm", "schedule_type": "STATIC", "schedule_name": "random_9", "is_biased_choice":true,"side_choice": "RIGHT", "trial_number":81,"observed_reward":1,"unobserved_reward":0},{"RT":2239,"time": "2018-08-15 03:46:53pm", "schedule_type": "STATIC", "schedule_name": "random_9", "is_biased_choice":true,"side_choice": "RIGHT", "trial_number":82,"observed_reward":0,"unobserved_reward":1},{"RT":2182,"time": "2018-08-15 03:46:55pm", "schedule_type": "STATIC", "schedule_name": "random_9", "is_biased_choice":true,"side_choice": "RIGHT", "trial_number":83,"observed_reward":1,"unobserved_reward":0},{"RT":2244,"time": "2018-08-15 03:46:57pm", "schedule_type": "STATIC", "schedule_name": "random_9", "is_biased_choice":false,"side_choice": "LEFT", "trial_number":84,"observed_reward":0,"unobserved_reward":0},{"RT":2198,"time": "2018-08-15 03:47:00pm", "schedule_type": "STATIC", "schedule_name": "random_9", "is_biased_choice":false,"side_choice": "LEFT", "trial_number":85,"observed_reward":0,"unobserved_reward":0},{"RT":2286,"time": "2018-08-15 03:47:02pm", "schedule_type": "STATIC", "schedule_name": "random_9", "is_biased_choice":false,"side_choice": "LEFT", "trial_number":86,"observed_reward":0,"unobserved_reward":0},{"RT":2136,"time": "2018-08-15 03:47:04pm", "schedule_type": "STATIC", "schedule_name": "random_9", "is_biased_choice":true,"side_choice": "RIGHT", "trial_number":87,"observed_reward":1,"unobserved_reward":0},{"RT":2157,"time": "2018-08-15 03:47:06pm", "schedule_type": "STATIC", "schedule_name": "random_9", "is_biased_choice":true,"side_choice": "RIGHT", "trial_number":88,"observed_reward":0,"unobserved_reward":0},{"RT":2084,"time": "2018-08-15 03:47:08pm", "schedule_type": "STATIC", "schedule_name": "random_9", "is_biased_choice":true,"side_choice": "RIGHT", "trial_number":89,"observed_reward":0,"unobserved_reward":0},{"RT":2586,"time": "2018-08-15 03:47:11pm", "schedule_type": "STATIC", "schedule_name": "random_9", "is_biased_choice":false,"side_choice": "LEFT", "trial_number":90,"observed_reward":0,"unobserved_reward":1},{"RT":2310,"time": "2018-08-15 03:47:13pm", "schedule_type": "STATIC", "schedule_name": "random_9", "is_biased_choice":false,"side_choice": "LEFT", "trial_number":91,"observed_reward":0,"unobserved_reward":1},{"RT":2531,"time": "2018-08-15 03:47:16pm", "schedule_type": "STATIC", "schedule_name": "random_9", "is_biased_choice":true,"side_choice": "RIGHT", "trial_number":92,"observed_reward":1,"unobserved_reward":0},{"RT":2164,"time": "2018-08-15 03:47:18pm", "schedule_type": "STATIC", "schedule_name": "random_9", "is_biased_choice":true,"side_choice": "RIGHT", "trial_number":93,"observed_reward":1,"unobserved_reward":0},{"RT":2308,"time": "2018-08-15 03:47:20pm", "schedule_type": "STATIC", "schedule_name": "random_9", "is_biased_choice":true,"side_choice": "RIGHT", "trial_number":94,"observed_reward":0,"unobserved_reward":1},{"RT":2217,"time": "2018-08-15 03:47:22pm", "schedule_type": "STATIC", "schedule_name": "random_9", "is_biased_choice":true,"side_choice": "RIGHT", "trial_number":95,"observed_reward":1,"unobserved_reward":0},{"RT":2249,"time": "2018-08-15 03:47:25pm", "schedule_type": "STATIC", "schedule_name": "random_9", "is_biased_choice":true,"side_choice": "RIGHT", "trial_number":96,"observed_reward":0,"unobserved_reward":0},{"RT":2178,"time": "2018-08-15 03:47:27pm", "schedule_type": "STATIC", "schedule_name": "random_9", "is_biased_choice":false,"side_choice": "LEFT", "trial_number":97,"observed_reward":0,"unobserved_reward":1},{"RT":2242,"time": "2018-08-15 03:47:29pm", "schedule_type": "STATIC", "schedule_name": "random_9", "is_biased_choice":false,"side_choice": "LEFT", "trial_number":98,"observed_reward":1,"unobserved_reward":0},{"RT":2243,"time": "2018-08-15 03:47:31pm", "schedule_type": "STATIC", "schedule_name": "random_9", "is_biased_choice":false,"side_choice": "LEFT", "trial_number":99,"observed_reward":0,"unobserved_reward":0},