[{"RT":4451,"time": "2018-08-15 01:42:43pm", "schedule_type": "STATIC", "schedule_name": "random_9", "is_biased_choice":true,"side_choice": "LEFT", "trial_number":0,"observed_reward":0,"unobserved_reward":1},{"RT":3223,"time": "2018-08-15 01:42:46pm", "schedule_type": "STATIC", "schedule_name": "random_9", "is_biased_choice":false,"side_choice": "RIGHT", "trial_number":1,"observed_reward":0,"unobserved_reward":0},{"RT":2911,"time": "2018-08-15 01:42:49pm", "schedule_type": "STATIC", "schedule_name": "random_9", "is_biased_choice":true,"side_choice": "LEFT", "trial_number":2,"observed_reward":0,"unobserved_reward":0},{"RT":3447,"time": "2018-08-15 01:42:53pm", "schedule_type": "STATIC", "schedule_name": "random_9", "is_biased_choice":true,"side_choice": "LEFT", "trial_number":3,"observed_reward":0,"unobserved_reward":0},{"RT":2642,"time": "2018-08-15 01:42:55pm", "schedule_type": "STATIC", "schedule_name": "random_9", "is_biased_choice":false,"side_choice": "RIGHT", "trial_number":4,"observed_reward":0,"unobserved_reward":0},{"RT":2451,"time": "2018-08-15 01:42:58pm", "schedule_type": "STATIC", "schedule_name": "random_9", "is_biased_choice":false,"side_choice": "RIGHT", "trial_number":5,"observed_reward":0,"unobserved_reward":1},{"RT":2518,"time": "2018-08-15 01:43:00pm", "schedule_type": "STATIC", "schedule_name": "random_9", "is_biased_choice":true,"side_choice": "LEFT", "trial_number":6,"observed_reward":0,"unobserved_reward":0},{"RT":2579,"time": "2018-08-15 01:43:03pm", "schedule_type": "STATIC", "schedule_name": "random_9", "is_biased_choice":true,"side_choice": "LEFT", "trial_number":7,"observed_reward":0,"unobserved_reward":0},{"RT":2659,"time": "2018-08-15 01:43:06pm", "schedule_type": "STATIC", "schedule_name": "random_9", "is_biased_choice":true,"side_choice": "LEFT", "trial_number":8,"observed_reward":0,"unobserved_reward":1},{"RT":2448,"time": "2018-08-15 01:43:08pm", "schedule_type": "STATIC", "schedule_name": "random_9", "is_biased_choice":false,"side_choice": "RIGHT", "trial_number":9,"observed_reward":0,"unobserved_reward":0},{"RT":2101,"time": "2018-08-15 01:43:10pm", "schedule_type": "STATIC", "schedule_name": "random_9", "is_biased_choice":true,"side_choice": "LEFT", "trial_number":10,"observed_reward":0,"unobserved_reward":1},{"RT":2366,"time": "2018-08-15 01:43:13pm", "schedule_type": "STATIC", "schedule_name": "random_9", "is_biased_choice":true,"side_choice": "LEFT", "trial_number":11,"observed_reward":0,"unobserved_reward":0},{"RT":2553,"time": "2018-08-15 01:43:15pm", "schedule_type": "STATIC", "schedule_name": "random_9", "is_biased_choice":true,"side_choice": "LEFT", "trial_number":12,"observed_reward":0,"unobserved_reward":0},{"RT":2399,"time": "2018-08-15 01:43:18pm", "schedule_type": "STATIC", "schedule_name": "random_9", "is_biased_choice":false,"side_choice": "RIGHT", "trial_number":13,"observed_reward":0,"unobserved_reward":0},{"RT":2433,"time": "2018-08-15 01:43:20pm", "schedule_type": "STATIC", "schedule_name": "random_9", "is_biased_choice":true,"side_choice": "LEFT", "trial_number":14,"observed_reward":1,"unobserved_reward":0},{"RT":2515,"time": "2018-08-15 01:43:22pm", "schedule_type": "STATIC", "schedule_name": "random_9", "is_biased_choice":true,"side_choice": "LEFT", "trial_number":15,"observed_reward":1,"unobserved_reward":1},{"RT":2417,"time": "2018-08-15 01:43:25pm", "schedule_type": "STATIC", "schedule_name": "random_9", "is_biased_choice":true,"side_choice": "LEFT", "trial_number":16,"observed_reward":0,"unobserved_reward":1},{"RT":2456,"time": "2018-08-15 01:43:27pm", "schedule_type": "STATIC", "schedule_name": "random_9", "is_biased_choice":true,"side_choice": "LEFT", "trial_number":17,"observed_reward":0,"unobserved_reward":0},{"RT":2484,"time": "2018-08-15 01:43:30pm", "schedule_type": "STATIC", "schedule_name": "random_9", "is_biased_choice":false,"side_choice": "RIGHT", "trial_number":18,"observed_reward":0,"unobserved_reward":0},{"RT":2410,"time": "2018-08-15 01:43:32pm", "schedule_type": "STATIC", "schedule_name": "random_9", "is_biased_choice":true,"side_choice": "LEFT", "trial_number":19,"observed_reward":0,"unobserved_reward":0},{"RT":2484,"time": "2018-08-15 01:43:35pm", "schedule_type": "STATIC", "schedule_name": "random_9", "is_biased_choice":false,"side_choice": "RIGHT", "trial_number":20,"observed_reward":0,"unobserved_reward":1},{"RT":2645,"time": "2018-08-15 01:43:37pm", "schedule_type": "STATIC", "schedule_name": "random_9", "is_biased_choice":false,"side_choice": "RIGHT", "trial_number":21,"observed_reward":0,"unobserved_reward":0},{"RT":2582,"time": "2018-08-15 01:43:40pm", "schedule_type": "STATIC", "schedule_name": "random_9", "is_biased_choice":true,"side_choice": "LEFT", "trial_number":22,"observed_reward":0,"unobserved_reward":0},{"RT":2508,"time": "2018-08-15 01:43:42pm", "schedule_type": "STATIC", "schedule_name": "random_9", "is_biased_choice":false,"side_choice": "RIGHT", "trial_number":23,"observed_reward":0,"unobserved_reward":0},{"RT":2871,"time": "2018-08-15 01:43:45pm", "schedule_type": "STATIC", "schedule_name": "random_9", "is_biased_choice":true,"side_choice": "LEFT", "trial_number":24,"observed_reward":0,"unobserved_reward":0},{"RT":2452,"time": "2018-08-15 01:43:48pm", "schedule_type": "STATIC", "schedule_name": "random_9", "is_biased_choice":true,"side_choice": "LEFT", "trial_number":25,"observed_reward":0,"unobserved_reward":1},{"RT":2464,"time": "2018-08-15 01:43:50pm", "schedule_type": "STATIC", "schedule_name": "random_9", "is_biased_choice":false,"side_choice": "RIGHT", "trial_number":26,"observed_reward":0,"unobserved_reward":0},{"RT":2550,"time": "2018-08-15 01:43:53pm", "schedule_type": "STATIC", "schedule_name": "random_9", "is_biased_choice":true,"side_choice": "LEFT", "trial_number":27,"observed_reward":0,"unobserved_reward":0},{"RT":14859,"time": "2018-08-15 01:44:08pm", "schedule_type": "STATIC", "schedule_name": "random_9", "is_biased_choice":true,"side_choice": "LEFT", "trial_number":28,"observed_reward":0,"unobserved_reward":0},{"RT":2683,"time": "2018-08-15 01:44:10pm", "schedule_type": "STATIC", "schedule_name": "random_9", "is_biased_choice":true,"side_choice": "LEFT", "trial_number":29,"observed_reward":0,"unobserved_reward":0},{"RT":2458,"time": "2018-08-15 01:44:13pm", "schedule_type": "STATIC", "schedule_name": "random_9", "is_biased_choice":true,"side_choice": "LEFT", "trial_number":30,"observed_reward":0,"unobserved_reward":1},{"RT":2552,"time": "2018-08-15 01:44:15pm", "schedule_type": "STATIC", "schedule_name": "random_9", "is_biased_choice":true,"side_choice": "LEFT", "trial_number":31,"observed_reward":0,"unobserved_reward":1},{"RT":2440,"time": "2018-08-15 01:44:18pm", "schedule_type": "STATIC", "schedule_name": "random_9", "is_biased_choice":false,"side_choice": "RIGHT", "trial_number":32,"observed_reward":1,"unobserved_reward":0},{"RT":2410,"time": "2018-08-15 01:44:20pm", "schedule_type": "STATIC", "schedule_name": "random_9", "is_biased_choice":false,"side_choice": "RIGHT", "trial_number":33,"observed_reward":0,"unobserved_reward":0},{"RT":2446,"time": "2018-08-15 01:44:24pm", "schedule_type": "STATIC", "schedule_name": "random_9", "is_biased_choice":true,"side_choice": "LEFT", "trial_number":34,"observed_reward":0,"unobserved_reward":0},{"RT":2801,"time": "2018-08-15 01:44:25pm", "schedule_type": "STATIC", "schedule_name": "random_9", "is_biased_choice":false,"side_choice": "RIGHT", "trial_number":35,"observed_reward":0,"unobserved_reward":0},{"RT":2595,"time": "2018-08-15 01:44:28pm", "schedule_type": "STATIC", "schedule_name": "random_9", "is_biased_choice":false,"side_choice": "RIGHT", "trial_number":36,"observed_reward":1,"unobserved_reward":0},{"RT":2646,"time": "2018-08-15 01:44:31pm", "schedule_type": "STATIC", "schedule_name": "random_9", "is_biased_choice":false,"side_choice": "RIGHT", "trial_number":37,"observed_reward":0,"unobserved_reward":0},{"RT":2544,"time": "2018-08-15 01:44:33pm", "schedule_type": "STATIC", "schedule_name": "random_9", "is_biased_choice":false,"side_choice": "RIGHT", "trial_number":38,"observed_reward":1,"unobserved_reward":1},{"RT":2433,"time": "2018-08-15 01:44:36pm", "schedule_type": "STATIC", "schedule_name": "random_9", "is_biased_choice":false,"side_choice": "RIGHT", "trial_number":39,"observed_reward":0,"unobserved_reward":0},{"RT":2466,"time": "2018-08-15 01:44:38pm", "schedule_type": "STATIC", "schedule_name": "random_9", "is_biased_choice":false,"side_choice": "RIGHT", "trial_number":40,"observed_reward":0,"unobserved_reward":0},{"RT":2444,"time": "2018-08-15 01:44:41pm", "schedule_type": "STATIC", "schedule_name": "random_9", "is_biased_choice":true,"side_choice": "LEFT", "trial_number":41,"observed_reward":1,"unobserved_reward":0},{"RT":2429,"time": "2018-08-15 01:44:43pm", "schedule_type": "STATIC", "schedule_name": "random_9", "is_biased_choice":true,"side_choice": "LEFT", "trial_number":42,"observed_reward":1,"unobserved_reward":1},{"RT":2552,"time": "2018-08-15 01:44:46pm", "schedule_type": "STATIC", "schedule_name": "random_9", "is_biased_choice":true,"side_choice": "LEFT", "trial_number":43,"observed_reward":0,"unobserved_reward":0},{"RT":2415,"time": "2018-08-15 01:44:48pm", "schedule_type": "STATIC", "schedule_name": "random_9", "is_biased_choice":true,"side_choice": "LEFT", "trial_number":44,"observed_reward":1,"unobserved_reward":0},{"RT":2371,"time": "2018-08-15 01:44:50pm", "schedule_type": "STATIC", "schedule_name": "random_9", "is_biased_choice":true,"side_choice": "LEFT", "trial_number":45,"observed_reward":0,"unobserved_reward":0},{"RT":2424,"time": "2018-08-15 01:44:53pm", "schedule_type": "STATIC", "schedule_name": "random_9", "is_biased_choice":true,"side_choice": "LEFT", "trial_number":46,"observed_reward":0,"unobserved_reward":0},{"RT":2598,"time": "2018-08-15 01:44:55pm", "schedule_type": "STATIC", "schedule_name": "random_9", "is_biased_choice":false,"side_choice": "RIGHT", "trial_number":47,"observed_reward":0,"unobserved_reward":1},{"RT":2395,"time": "2018-08-15 01:44:58pm", "schedule_type": "STATIC", "schedule_name": "random_9", "is_biased_choice":true,"side_choice": "LEFT", "trial_number":48,"observed_reward":1,"unobserved_reward":0},{"RT":2422,"time": "2018-08-15 01:45:00pm", "schedule_type": "STATIC", "schedule_name": "random_9", "is_biased_choice":true,"side_choice": "LEFT", "trial_number":49,"observed_reward":0,"unobserved_reward":0},{"RT":2613,"time": "2018-08-15 01:45:03pm", "schedule_type": "STATIC", "schedule_name": "random_9", "is_biased_choice":true,"side_choice": "LEFT", "trial_number":50,"observed_reward":0,"unobserved_reward":0},{"RT":2449,"time": "2018-08-15 01:45:05pm", "schedule_type": "STATIC", "schedule_name": "random_9", "is_biased_choice":false,"side_choice": "RIGHT", "trial_number":51,"observed_reward":0,"unobserved_reward":0},{"RT":2382,"time": "2018-08-15 01:45:08pm", "schedule_type": "STATIC", "schedule_name": "random_9", "is_biased_choice":true,"side_choice": "LEFT", "trial_number":52,"observed_reward":0,"unobserved_reward":0},{"RT":2459,"time": "2018-08-15 01:45:10pm", "schedule_type": "STATIC", "schedule_name": "random_9", "is_biased_choice":false,"side_choice": "RIGHT", "trial_number":53,"observed_reward":0,"unobserved_reward":1},{"RT":2320,"time": "2018-08-15 01:45:12pm", "schedule_type": "STATIC", "schedule_name": "random_9", "is_biased_choice":true,"side_choice": "LEFT", "trial_number":54,"observed_reward":1,"unobserved_reward":0},{"RT":2432,"time": "2018-08-15 01:45:15pm", "schedule_type": "STATIC", "schedule_name": "random_9", "is_biased_choice":true,"side_choice": "LEFT", "trial_number":55,"observed_reward":0,"unobserved_reward":0},{"RT":2416,"time": "2018-08-15 01:45:17pm", "schedule_type": "STATIC", "schedule_name": "random_9", "is_biased_choice":true,"side_choice": "LEFT", "trial_number":56,"observed_reward":1,"unobserved_reward":0},{"RT":2474,"time": "2018-08-15 01:45:20pm", "schedule_type": "STATIC", "schedule_name": "random_9", "is_biased_choice":true,"side_choice": "LEFT", "trial_number":57,"observed_reward":0,"unobserved_reward":0},{"RT":2401,"time": "2018-08-15 01:45:24pm", "schedule_type": "STATIC", "schedule_name": "random_9", "is_biased_choice":false,"side_choice": "RIGHT", "trial_number":58,"observed_reward":0,"unobserved_reward":0},{"RT":2446,"time": "2018-08-15 01:45:25pm", "schedule_type": "STATIC", "schedule_name": "random_9", "is_biased_choice":false,"side_choice": "RIGHT", "trial_number":59,"observed_reward":0,"unobserved_reward":0},{"RT":2423,"time": "2018-08-15 01:45:27pm", "schedule_type": "STATIC", "schedule_name": "random_9", "is_biased_choice":true,"side_choice": "LEFT", "trial_number":60,"observed_reward":0,"unobserved_reward":0},{"RT":2503,"time": "2018-08-15 01:45:29pm", "schedule_type": "STATIC", "schedule_name": "random_9", "is_biased_choice":true,"side_choice": "LEFT", "trial_number":61,"observed_reward":0,"unobserved_reward":1},{"RT":2421,"time": "2018-08-15 01:45:32pm", "schedule_type": "STATIC", "schedule_name": "random_9", "is_biased_choice":false,"side_choice": "RIGHT", "trial_number":62,"observed_reward":0,"unobserved_reward":1},{"RT":2425,"time": "2018-08-15 01:45:34pm", "schedule_type": "STATIC", "schedule_name": "random_9", "is_biased_choice":true,"side_choice": "LEFT", "trial_number":63,"observed_reward":0,"unobserved_reward":1},{"RT":2421,"time": "2018-08-15 01:45:37pm", "schedule_type": "STATIC", "schedule_name": "random_9", "is_biased_choice":true,"side_choice": "LEFT", "trial_number":64,"observed_reward":0,"unobserved_reward":1},{"RT":2372,"time": "2018-08-15 01:45:39pm", "schedule_type": "STATIC", "schedule_name": "random_9", "is_biased_choice":true,"side_choice": "LEFT", "trial_number":65,"observed_reward":0,"unobserved_reward":0},{"RT":2383,"time": "2018-08-15 01:45:42pm", "schedule_type": "STATIC", "schedule_name": "random_9", "is_biased_choice":false,"side_choice": "RIGHT", "trial_number":66,"observed_reward":0,"unobserved_reward":1},{"RT":2310,"time": "2018-08-15 01:45:44pm", "schedule_type": "STATIC", "schedule_name": "random_9", "is_biased_choice":true,"side_choice": "LEFT", "trial_number":67,"observed_reward":0,"unobserved_reward":1},{"RT":2347,"time": "2018-08-15 01:45:46pm", "schedule_type": "STATIC", "schedule_name": "random_9", "is_biased_choice":true,"side_choice": "LEFT", "trial_number":68,"observed_reward":0,"unobserved_reward":0},{"RT":2338,"time": "2018-08-15 01:45:48pm", "schedule_type": "STATIC", "schedule_name": "random_9", "is_biased_choice":true,"side_choice": "LEFT", "trial_number":69,"observed_reward":0,"unobserved_reward":1},{"RT":2261,"time": "2018-08-15 01:45:51pm", "schedule_type": "STATIC", "schedule_name": "random_9", "is_biased_choice":false,"side_choice": "RIGHT", "trial_number":70,"observed_reward":1,"unobserved_reward":0},{"RT":2348,"time": "2018-08-15 01:45:53pm", "schedule_type": "STATIC", "schedule_name": "random_9", "is_biased_choice":false,"side_choice": "RIGHT", "trial_number":71,"observed_reward":0,"unobserved_reward":0},{"RT":2364,"time": "2018-08-15 01:45:55pm", "schedule_type": "STATIC", "schedule_name": "random_9", "is_biased_choice":false,"side_choice": "RIGHT", "trial_number":72,"observed_reward":0,"unobserved_reward":0},{"RT":2407,"time": "2018-08-15 01:45:58pm", "schedule_type": "STATIC", "schedule_name": "random_9", "is_biased_choice":true,"side_choice": "LEFT", "trial_number":73,"observed_reward":0,"unobserved_reward":1},{"RT":4632,"time": "2018-08-15 01:46:03pm", "schedule_type": "STATIC", "schedule_name": "random_9", "is_biased_choice":true,"side_choice": "LEFT", "trial_number":74,"observed_reward":0,"unobserved_reward":1},{"RT":2380,"time": "2018-08-15 01:46:05pm", "schedule_type": "STATIC", "schedule_name": "random_9", "is_biased_choice":false,"side_choice": "RIGHT", "trial_number":75,"observed_reward":1,"unobserved_reward":0},{"RT":2389,"time": "2018-08-15 01:46:07pm", "schedule_type": "STATIC", "schedule_name": "random_9", "is_biased_choice":false,"side_choice": "RIGHT", "trial_number":76,"observed_reward":0,"unobserved_reward":0},{"RT":2400,"time": "2018-08-15 01:46:10pm", "schedule_type": "STATIC", "schedule_name": "random_9", "is_biased_choice":false,"side_choice": "RIGHT", "trial_number":77,"observed_reward":0,"unobserved_reward":0},{"RT":2365,"time": "2018-08-15 01:46:12pm", "schedule_type": "STATIC", "schedule_name": "random_9", "is_biased_choice":true,"side_choice": "LEFT", "trial_number":78,"observed_reward":1,"unobserved_reward":0},{"RT":2354,"time": "2018-08-15 01:46:14pm", "schedule_type": "STATIC", "schedule_name": "random_9", "is_biased_choice":true,"side_choice": "LEFT", "trial_number":79,"observed_reward":0,"unobserved_reward":0},{"RT":3188,"time": "2018-08-15 01:46:18pm", "schedule_type": "STATIC", "schedule_name": "random_9", "is_biased_choice":true,"side_choice": "LEFT", "trial_number":80,"observed_reward":0,"unobserved_reward":1},{"RT":2586,"time": "2018-08-15 01:46:20pm", "schedule_type": "STATIC", "schedule_name": "random_9", "is_biased_choice":false,"side_choice": "RIGHT", "trial_number":81,"observed_reward":0,"unobserved_reward":1},{"RT":2461,"time": "2018-08-15 01:46:23pm", "schedule_type": "STATIC", "schedule_name": "random_9", "is_biased_choice":true,"side_choice": "LEFT", "trial_number":82,"observed_reward":0,"unobserved_reward":1},{"RT":2502,"time": "2018-08-15 01:46:27pm", "schedule_type": "STATIC", "schedule_name": "random_9", "is_biased_choice":true,"side_choice": "LEFT", "trial_number":83,"observed_reward":1,"unobserved_reward":0},{"RT":2501,"time": "2018-08-15 01:46:28pm", "schedule_type": "STATIC", "schedule_name": "random_9", "is_biased_choice":false,"side_choice": "RIGHT", "trial_number":84,"observed_reward":0,"unobserved_reward":0},{"RT":2907,"time": "2018-08-15 01:46:31pm", "schedule_type": "STATIC", "schedule_name": "random_9", "is_biased_choice":true,"side_choice": "LEFT", "trial_number":85,"observed_reward":0,"unobserved_reward":0},{"RT":2600,"time": "2018-08-15 01:46:33pm", "schedule_type": "STATIC", "schedule_name": "random_9", "is_biased_choice":true,"side_choice": "LEFT", "trial_number":86,"observed_reward":0,"unobserved_reward":0},{"RT":2739,"time": "2018-08-15 01:46:36pm", "schedule_type": "STATIC", "schedule_name": "random_9", "is_biased_choice":true,"side_choice": "LEFT", "trial_number":87,"observed_reward":1,"unobserved_reward":0},{"RT":2622,"time": "2018-08-15 01:46:39pm", "schedule_type": "STATIC", "schedule_name": "random_9", "is_biased_choice":true,"side_choice": "LEFT", "trial_number":88,"observed_reward":0,"unobserved_reward":0},{"RT":2442,"time": "2018-08-15 01:46:41pm", "schedule_type": "STATIC", "schedule_name": "random_9", "is_biased_choice":true,"side_choice": "LEFT", "trial_number":89,"observed_reward":0,"unobserved_reward":0},{"RT":2473,"time": "2018-08-15 01:46:43pm", "schedule_type": "STATIC", "schedule_name": "random_9", "is_biased_choice":true,"side_choice": "LEFT", "trial_number":90,"observed_reward":1,"unobserved_reward":0},{"RT":2682,"time": "2018-08-15 01:46:46pm", "schedule_type": "STATIC", "schedule_name": "random_9", "is_biased_choice":true,"side_choice": "LEFT", "trial_number":91,"observed_reward":1,"unobserved_reward":0},{"RT":2433,"time": "2018-08-15 01:46:49pm", "schedule_type": "STATIC", "schedule_name": "random_9", "is_biased_choice":true,"side_choice": "LEFT", "trial_number":92,"observed_reward":1,"unobserved_reward":0},{"RT":2459,"time": "2018-08-15 01:46:51pm", "schedule_type": "STATIC", "schedule_name": "random_9", "is_biased_choice":true,"side_choice": "LEFT", "trial_number":93,"observed_reward":1,"unobserved_reward":0},{"RT":2355,"time": "2018-08-15 01:46:53pm", "schedule_type": "STATIC", "schedule_name": "random_9", "is_biased_choice":true,"side_choice": "LEFT", "trial_number":94,"observed_reward":0,"unobserved_reward":1},{"RT":2381,"time": "2018-08-15 01:46:56pm", "schedule_type": "STATIC", "schedule_name": "random_9", "is_biased_choice":false,"side_choice": "RIGHT", "trial_number":95,"observed_reward":0,"unobserved_reward":1},{"RT":2428,"time": "2018-08-15 01:46:58pm", "schedule_type": "STATIC", "schedule_name": "random_9", "is_biased_choice":true,"side_choice": "LEFT", "trial_number":96,"observed_reward":0,"unobserved_reward":0},{"RT":2412,"time": "2018-08-15 01:47:01pm", "schedule_type": "STATIC", "schedule_name": "random_9", "is_biased_choice":false,"side_choice": "RIGHT", "trial_number":97,"observed_reward":0,"unobserved_reward":1},{"RT":2425,"time": "2018-08-15 01:47:03pm", "schedule_type": "STATIC", "schedule_name": "random_9", "is_biased_choice":true,"side_choice": "LEFT", "trial_number":98,"observed_reward":0,"unobserved_reward":1},