trial_number, time, schedule_type, schedule_name, is_biased_choice, side_choice, RT, observed_reward, unobserved_reward, biased_reward, unbiased_reward
0,2018-08-15 03:28:31pm, STATIC, random_9, true, LEFT, 12485, 0, 1, 0, 1
1,2018-08-15 03:28:38pm, STATIC, random_9, false, RIGHT, 6972, 0, 0, 0, 0
2,2018-08-15 03:28:44pm, STATIC, random_9, false, RIGHT, 6161, 0, 0, 0, 0
3,2018-08-15 03:28:49pm, STATIC, random_9, false, RIGHT, 4207, 0, 0, 0, 0
4,2018-08-15 03:28:53pm, STATIC, random_9, false, RIGHT, 4210, 0, 0, 0, 0
5,2018-08-15 03:28:57pm, STATIC, random_9, false, RIGHT, 3799, 0, 1, 1, 0
6,2018-08-15 03:29:01pm, STATIC, random_9, false, RIGHT, 4153, 0, 0, 0, 0
7,2018-08-15 03:29:06pm, STATIC, random_9, false, RIGHT, 5335, 0, 0, 0, 0
8,2018-08-15 03:29:14pm, STATIC, random_9, true, LEFT, 5424, 0, 1, 0, 1
9,2018-08-15 03:29:17pm, STATIC, random_9, true, LEFT, 5464, 0, 0, 0, 0
10,2018-08-15 03:29:21pm, STATIC, random_9, false, RIGHT, 4088, 1, 0, 0, 1
11,2018-08-15 03:29:26pm, STATIC, random_9, false, RIGHT, 4417, 0, 0, 0, 0
12,2018-08-15 03:29:30pm, STATIC, random_9, true, LEFT, 4047, 0, 0, 0, 0
13,2018-08-15 03:29:34pm, STATIC, random_9, true, LEFT, 4424, 0, 0, 0, 0
14,2018-08-15 03:29:40pm, STATIC, random_9, true, LEFT, 5604, 1, 0, 1, 0
15,2018-08-15 03:29:44pm, STATIC, random_9, true, LEFT, 4367, 1, 1, 1, 1
16,2018-08-15 03:29:48pm, STATIC, random_9, true, LEFT, 4021, 0, 1, 0, 1
17,2018-08-15 03:29:53pm, STATIC, random_9, false, RIGHT, 4530, 0, 0, 0, 0
18,2018-08-15 03:29:57pm, STATIC, random_9, true, LEFT, 4437, 0, 0, 0, 0
19,2018-08-15 03:33:17pm, STATIC, random_9, false, RIGHT, 199562, 0, 0, 0, 0
20,2018-08-15 03:33:21pm, STATIC, random_9, true, LEFT, 3933, 1, 0, 1, 0
21,2018-08-15 03:33:25pm, STATIC, random_9, false, RIGHT, 4270, 0, 0, 0, 0
22,2018-08-15 03:33:29pm, STATIC, random_9, true, LEFT, 4620, 0, 0, 0, 0
23,2018-08-15 03:33:34pm, STATIC, random_9, false, RIGHT, 4394, 0, 0, 0, 0
24,2018-08-15 03:33:39pm, STATIC, random_9, true, LEFT, 4729, 0, 0, 0, 0
25,2018-08-15 03:33:43pm, STATIC, random_9, true, LEFT, 4066, 0, 1, 0, 1
26,2018-08-15 03:33:46pm, STATIC, random_9, true, LEFT, 3814, 0, 0, 0, 0
27,2018-08-15 03:33:55pm, STATIC, random_9, false, RIGHT, 8723, 0, 0, 0, 0
28,2018-08-15 03:33:59pm, STATIC, random_9, true, LEFT, 4118, 0, 0, 0, 0
29,2018-08-15 03:34:04pm, STATIC, random_9, true, LEFT, 4944, 0, 0, 0, 0
30,2018-08-15 03:34:08pm, STATIC, random_9, false, RIGHT, 4160, 1, 0, 0, 1
31,2018-08-15 03:34:14pm, STATIC, random_9, true, LEFT, 6144, 0, 1, 0, 1
32,2018-08-15 03:34:20pm, STATIC, random_9, true, LEFT, 5126, 0, 1, 0, 1
33,2018-08-15 03:34:25pm, STATIC, random_9, true, LEFT, 5689, 0, 0, 0, 0
34,2018-08-15 03:34:29pm, STATIC, random_9, false, RIGHT, 3953, 0, 0, 0, 0
35,2018-08-15 03:34:34pm, STATIC, random_9, true, LEFT, 4607, 0, 0, 0, 0
36,2018-08-15 03:34:38pm, STATIC, random_9, true, LEFT, 4398, 0, 1, 0, 1
37,2018-08-15 03:34:44pm, STATIC, random_9, true, LEFT, 5579, 0, 0, 0, 0
38,2018-08-15 03:34:49pm, STATIC, random_9, false, RIGHT, 4935, 1, 1, 1, 1
39,2018-08-15 03:34:54pm, STATIC, random_9, true, LEFT, 4895, 0, 0, 0, 0
40,2018-08-15 03:34:59pm, STATIC, random_9, false, RIGHT, 5290, 0, 0, 0, 0
41,2018-08-15 03:35:04pm, STATIC, random_9, true, LEFT, 5142, 1, 0, 1, 0
42,2018-08-15 03:35:10pm, STATIC, random_9, true, LEFT, 5481, 1, 1, 1, 1
43,2018-08-15 03:35:14pm, STATIC, random_9, true, LEFT, 4594, 0, 0, 0, 0
44,2018-08-15 03:35:18pm, STATIC, random_9, true, LEFT, 4045, 1, 0, 1, 0
45,2018-08-15 03:35:31pm, STATIC, random_9, true, LEFT, 12327, 0, 0, 0, 0
46,2018-08-15 03:35:34pm, STATIC, random_9, false, RIGHT, 3829, 0, 0, 0, 0
47,2018-08-15 03:35:38pm, STATIC, random_9, true, LEFT, 3569, 1, 0, 1, 0
48,2018-08-15 03:35:42pm, STATIC, random_9, true, LEFT, 3879, 1, 0, 1, 0
49,2018-08-15 03:35:46pm, STATIC, random_9, true, LEFT, 4160, 0, 0, 0, 0
50,2018-08-15 03:35:50pm, STATIC, random_9, true, LEFT, 3919, 0, 0, 0, 0
51,2018-08-15 03:35:54pm, STATIC, random_9, false, RIGHT, 4167, 0, 0, 0, 0
52,2018-08-15 03:35:58pm, STATIC, random_9, true, LEFT, 4339, 0, 0, 0, 0
53,2018-08-15 03:36:02pm, STATIC, random_9, false, RIGHT, 3856, 0, 1, 1, 0
54,2018-08-15 03:36:07pm, STATIC, random_9, false, RIGHT, 4350, 0, 1, 1, 0
55,2018-08-15 03:36:11pm, STATIC, random_9, true, LEFT, 3959, 0, 0, 0, 0
56,2018-08-15 03:36:14pm, STATIC, random_9, true, LEFT, 3721, 1, 0, 1, 0
57,2018-08-15 03:36:19pm, STATIC, random_9, true, LEFT, 4655, 0, 0, 0, 0
58,2018-08-15 03:36:23pm, STATIC, random_9, false, RIGHT, 3898, 0, 0, 0, 0
59,2018-08-15 03:36:27pm, STATIC, random_9, true, LEFT, 4351, 0, 0, 0, 0
60,2018-08-15 03:36:32pm, STATIC, random_9, true, LEFT, 4852, 0, 0, 0, 0
61,2018-08-15 03:36:36pm, STATIC, random_9, false, RIGHT, 4131, 1, 0, 0, 1
