trial_number, time, schedule_type, schedule_name, is_biased_choice, side_choice, RT, observed_reward, unobserved_reward, biased_reward, unbiased_reward
0,2018-08-15 01:44:29pm, STATIC, random_9, true, RIGHT, 7801, 0, 1, 0, 1
1,2018-08-15 01:44:32pm, STATIC, random_9, false, LEFT, 3762, 0, 0, 0, 0
2,2018-08-15 01:44:36pm, STATIC, random_9, false, LEFT, 3225, 0, 0, 0, 0
3,2018-08-15 01:44:39pm, STATIC, random_9, false, LEFT, 3714, 0, 0, 0, 0
4,2018-08-15 01:44:42pm, STATIC, random_9, true, RIGHT, 2926, 0, 0, 0, 0
5,2018-08-15 01:44:46pm, STATIC, random_9, true, RIGHT, 3738, 1, 0, 1, 0
6,2018-08-15 01:44:49pm, STATIC, random_9, true, RIGHT, 2865, 0, 0, 0, 0
7,2018-08-15 01:44:52pm, STATIC, random_9, false, LEFT, 2793, 0, 0, 0, 0
8,2018-08-15 01:44:54pm, STATIC, random_9, true, RIGHT, 2580, 0, 1, 0, 1
9,2018-08-15 01:44:57pm, STATIC, random_9, false, LEFT, 2986, 0, 0, 0, 0
10,2018-08-15 01:45:00pm, STATIC, random_9, true, RIGHT, 2575, 0, 1, 0, 1
11,2018-08-15 01:45:03pm, STATIC, random_9, true, RIGHT, 3093, 0, 0, 0, 0
12,2018-08-15 01:45:06pm, STATIC, random_9, true, RIGHT, 3040, 0, 0, 0, 0
13,2018-08-15 01:45:09pm, STATIC, random_9, false, LEFT, 2761, 0, 0, 0, 0
14,2018-08-15 01:45:12pm, STATIC, random_9, false, LEFT, 2996, 0, 1, 1, 0
15,2018-08-15 01:45:14pm, STATIC, random_9, false, LEFT, 2537, 1, 1, 1, 1
16,2018-08-15 01:45:17pm, STATIC, random_9, false, LEFT, 2704, 1, 0, 0, 1
17,2018-08-15 01:45:20pm, STATIC, random_9, false, LEFT, 3037, 0, 0, 0, 0
18,2018-08-15 01:45:24pm, STATIC, random_9, false, LEFT, 2688, 0, 0, 0, 0
19,2018-08-15 01:45:26pm, STATIC, random_9, false, LEFT, 3506, 0, 0, 0, 0
20,2018-08-15 01:45:29pm, STATIC, random_9, true, RIGHT, 2780, 1, 0, 1, 0
21,2018-08-15 01:45:32pm, STATIC, random_9, false, LEFT, 2937, 0, 0, 0, 0
22,2018-08-15 01:45:35pm, STATIC, random_9, false, LEFT, 2680, 0, 0, 0, 0
23,2018-08-15 01:45:37pm, STATIC, random_9, false, LEFT, 2509, 0, 0, 0, 0
24,2018-08-15 01:45:40pm, STATIC, random_9, false, LEFT, 2721, 0, 0, 0, 0
25,2018-08-15 01:45:43pm, STATIC, random_9, true, RIGHT, 2806, 0, 1, 0, 1
26,2018-08-15 01:45:45pm, STATIC, random_9, false, LEFT, 2565, 0, 0, 0, 0
27,2018-08-15 01:45:48pm, STATIC, random_9, true, RIGHT, 2969, 0, 0, 0, 0
28,2018-08-15 01:45:51pm, STATIC, random_9, false, LEFT, 2672, 0, 0, 0, 0
29,2018-08-15 01:45:54pm, STATIC, random_9, true, RIGHT, 3342, 0, 0, 0, 0
30,2018-08-15 01:46:21pm, STATIC, random_9, false, LEFT, 27146, 1, 0, 0, 1
31,2018-08-15 01:46:26pm, STATIC, random_9, false, LEFT, 2993, 1, 0, 0, 1
32,2018-08-15 01:46:28pm, STATIC, random_9, false, LEFT, 2993, 1, 0, 0, 1
33,2018-08-15 01:46:30pm, STATIC, random_9, false, LEFT, 3117, 0, 0, 0, 0
34,2018-08-15 01:46:34pm, STATIC, random_9, true, RIGHT, 3201, 0, 0, 0, 0
35,2018-08-15 01:46:37pm, STATIC, random_9, false, LEFT, 2961, 0, 0, 0, 0
36,2018-08-15 01:46:40pm, STATIC, random_9, true, RIGHT, 3458, 0, 1, 0, 1
37,2018-08-15 01:46:43pm, STATIC, random_9, false, LEFT, 3053, 0, 0, 0, 0
38,2018-08-15 01:46:46pm, STATIC, random_9, true, RIGHT, 2687, 1, 1, 1, 1
39,2018-08-15 01:46:48pm, STATIC, random_9, true, RIGHT, 2617, 0, 0, 0, 0
40,2018-08-15 01:46:51pm, STATIC, random_9, false, LEFT, 2571, 0, 0, 0, 0
41,2018-08-15 01:46:53pm, STATIC, random_9, true, RIGHT, 2553, 1, 0, 1, 0
42,2018-08-15 01:46:56pm, STATIC, random_9, true, RIGHT, 2788, 1, 1, 1, 1
43,2018-08-15 01:46:59pm, STATIC, random_9, false, LEFT, 2544, 0, 0, 0, 0
44,2018-08-15 01:47:01pm, STATIC, random_9, false, LEFT, 2509, 0, 1, 1, 0
45,2018-08-15 01:47:04pm, STATIC, random_9, true, RIGHT, 2399, 0, 0, 0, 0
46,2018-08-15 01:47:06pm, STATIC, random_9, false, LEFT, 2529, 0, 0, 0, 0
47,2018-08-15 01:47:09pm, STATIC, random_9, true, RIGHT, 2572, 1, 0, 1, 0
48,2018-08-15 01:47:12pm, STATIC, random_9, true, RIGHT, 2744, 1, 0, 1, 0
49,2018-08-15 01:47:14pm, STATIC, random_9, false, LEFT, 2712, 0, 0, 0, 0
50,2018-08-15 01:47:17pm, STATIC, random_9, true, RIGHT, 2476, 0, 0, 0, 0
51,2018-08-15 01:47:19pm, STATIC, random_9, false, LEFT, 2423, 0, 0, 0, 0
52,2018-08-15 01:47:22pm, STATIC, random_9, false, LEFT, 2677, 0, 0, 0, 0
53,2018-08-15 01:47:24pm, STATIC, random_9, true, RIGHT, 2552, 1, 0, 1, 0
54,2018-08-15 01:47:28pm, STATIC, random_9, true, RIGHT, 2744, 1, 0, 1, 0
55,2018-08-15 01:47:30pm, STATIC, random_9, true, RIGHT, 2989, 0, 0, 0, 0
56,2018-08-15 01:47:33pm, STATIC, random_9, false, LEFT, 3066, 0, 1, 1, 0
57,2018-08-15 01:47:36pm, STATIC, random_9, true, RIGHT, 2432, 0, 0, 0, 0
58,2018-08-15 01:47:38pm, STATIC, random_9, false, LEFT, 2668, 0, 0, 0, 0
59,2018-08-15 01:47:41pm, STATIC, random_9, false, LEFT, 2906, 0, 0, 0, 0
60,2018-08-15 01:47:44pm, STATIC, random_9, false, LEFT, 2583, 0, 0, 0, 0
61,2018-08-15 01:47:46pm, STATIC, random_9, false, LEFT, 2630, 1, 0, 0, 1
62,2018-08-15 01:47:49pm, STATIC, random_9, false, LEFT, 2495, 0, 1, 1, 0
63,2018-08-15 01:47:52pm, STATIC, random_9, false, LEFT, 2589, 1, 0, 0, 1
64,2018-08-15 01:47:54pm, STATIC, random_9, false, LEFT, 2448, 1, 0, 0, 1
65,2018-08-15 01:47:56pm, STATIC, random_9, false, LEFT, 2456, 0, 0, 0, 0
66,2018-08-15 01:47:59pm, STATIC, random_9, false, LEFT, 2492, 0, 1, 1, 0
67,2018-08-15 01:48:01pm, STATIC, random_9, false, LEFT, 2480, 1, 0, 0, 1
68,2018-08-15 01:48:04pm, STATIC, random_9, false, LEFT, 2405, 0, 0, 0, 0
69,2018-08-15 01:48:06pm, STATIC, random_9, true, RIGHT, 2367, 0, 1, 0, 1
70,2018-08-15 01:48:09pm, STATIC, random_9, true, RIGHT, 2460, 0, 1, 0, 1
71,2018-08-15 01:48:11pm, STATIC, random_9, false, LEFT, 2351, 0, 0, 0, 0
72,2018-08-15 01:48:14pm, STATIC, random_9, true, RIGHT, 2701, 0, 0, 0, 0
73,2018-08-15 01:48:16pm, STATIC, random_9, false, LEFT, 2455, 1, 0, 0, 1
74,2018-08-15 01:48:19pm, STATIC, random_9, false, LEFT, 2421, 1, 0, 0, 1
75,2018-08-15 01:48:21pm, STATIC, random_9, true, RIGHT, 2375, 0, 1, 0, 1
76,2018-08-15 01:48:24pm, STATIC, random_9, false, LEFT, 3074, 0, 0, 0, 0
77,2018-08-15 01:48:28pm, STATIC, random_9, false, LEFT, 2347, 0, 0, 0, 0
78,2018-08-15 01:48:29pm, STATIC, random_9, false, LEFT, 3009, 0, 1, 1, 0
79,2018-08-15 01:48:32pm, STATIC, random_9, false, LEFT, 3024, 0, 0, 0, 0
80,2018-08-15 01:48:35pm, STATIC, random_9, false, LEFT, 2485, 1, 0, 0, 1
81,2018-08-15 01:48:37pm, STATIC, random_9, false, LEFT, 2536, 0, 1, 1, 0
82,2018-08-15 01:48:40pm, STATIC, random_9, true, RIGHT, 2408, 0, 1, 0, 1
83,2018-08-15 01:48:42pm, STATIC, random_9, true, RIGHT, 2435, 1, 0, 1, 0
84,2018-08-15 01:48:45pm, STATIC, random_9, true, RIGHT, 2480, 0, 0, 0, 0
85,2018-08-15 01:48:47pm, STATIC, random_9, false, LEFT, 2452, 0, 0, 0, 0
86,2018-08-15 01:48:50pm, STATIC, random_9, false, LEFT, 2512, 0, 0, 0, 0
87,2018-08-15 01:48:52pm, STATIC, random_9, true, RIGHT, 2611, 1, 0, 1, 0
88,2018-08-15 01:48:55pm, STATIC, random_9, true, RIGHT, 2569, 0, 0, 0, 0
89,2018-08-15 01:48:58pm, STATIC, random_9, false, LEFT, 2889, 0, 0, 0, 0
90,2018-08-15 01:49:00pm, STATIC, random_9, true, RIGHT, 2547, 1, 0, 1, 0
91,2018-08-15 01:49:03pm, STATIC, random_9, true, RIGHT, 2463, 1, 0, 1, 0
92,2018-08-15 01:49:05pm, STATIC, random_9, true, RIGHT, 2488, 1, 0, 1, 0
93,2018-08-15 01:49:08pm, STATIC, random_9, true, RIGHT, 2444, 1, 0, 1, 0
94,2018-08-15 01:49:10pm, STATIC, random_9, true, RIGHT, 2424, 0, 1, 0, 1
95,2018-08-15 01:49:13pm, STATIC, random_9, true, RIGHT, 2548, 1, 0, 1, 0
96,2018-08-15 01:49:15pm, STATIC, random_9, true, RIGHT, 2569, 0, 0, 0, 0
97,2018-08-15 01:49:18pm, STATIC, random_9, false, LEFT, 2865, 0, 1, 1, 0
98,2018-08-15 01:49:21pm, STATIC, random_9, true, RIGHT, 2411, 0, 1, 0, 1
99,2018-08-15 01:49:23pm, STATIC, random_9, true, RIGHT, 2528, 0, 0, 0, 0
