[{"RT":2818,"time": "2018-08-15 06:03:15pm", "schedule_type": "STATIC", "schedule_name": "random_9", "is_biased_choice":true,"side_choice": "LEFT", "trial_number":0,"observed_reward":0,"unobserved_reward":1},{"RT":5046,"time": "2018-08-15 06:03:20pm", "schedule_type": "STATIC", "schedule_name": "random_9", "is_biased_choice":false,"side_choice": "RIGHT", "trial_number":1,"observed_reward":0,"unobserved_reward":0},{"RT":3036,"time": "2018-08-15 06:03:23pm", "schedule_type": "STATIC", "schedule_name": "random_9", "is_biased_choice":true,"side_choice": "LEFT", "trial_number":2,"observed_reward":0,"unobserved_reward":0},{"RT":3356,"time": "2018-08-15 06:03:26pm", "schedule_type": "STATIC", "schedule_name": "random_9", "is_biased_choice":true,"side_choice": "LEFT", "trial_number":3,"observed_reward":0,"unobserved_reward":0},{"RT":2801,"time": "2018-08-15 06:03:29pm", "schedule_type": "STATIC", "schedule_name": "random_9", "is_biased_choice":false,"side_choice": "RIGHT", "trial_number":4,"observed_reward":0,"unobserved_reward":0},{"RT":3071,"time": "2018-08-15 06:03:32pm", "schedule_type": "STATIC", "schedule_name": "random_9", "is_biased_choice":false,"side_choice": "RIGHT", "trial_number":5,"observed_reward":0,"unobserved_reward":1},{"RT":3481,"time": "2018-08-15 06:03:36pm", "schedule_type": "STATIC", "schedule_name": "random_9", "is_biased_choice":false,"side_choice": "RIGHT", "trial_number":6,"observed_reward":0,"unobserved_reward":0},{"RT":2791,"time": "2018-08-15 06:03:38pm", "schedule_type": "STATIC", "schedule_name": "random_9", "is_biased_choice":true,"side_choice": "LEFT", "trial_number":7,"observed_reward":0,"unobserved_reward":0},{"RT":3992,"time": "2018-08-15 06:03:43pm", "schedule_type": "STATIC", "schedule_name": "random_9", "is_biased_choice":true,"side_choice": "LEFT", "trial_number":8,"observed_reward":0,"unobserved_reward":1},{"RT":4368,"time": "2018-08-15 06:03:47pm", "schedule_type": "STATIC", "schedule_name": "random_9", "is_biased_choice":false,"side_choice": "RIGHT", "trial_number":9,"observed_reward":0,"unobserved_reward":0},{"RT":3632,"time": "2018-08-15 06:03:51pm", "schedule_type": "STATIC", "schedule_name": "random_9", "is_biased_choice":true,"side_choice": "LEFT", "trial_number":10,"observed_reward":0,"unobserved_reward":1},{"RT":2887,"time": "2018-08-15 06:03:53pm", "schedule_type": "STATIC", "schedule_name": "random_9", "is_biased_choice":true,"side_choice": "LEFT", "trial_number":11,"observed_reward":0,"unobserved_reward":0},{"RT":3138,"time": "2018-08-15 06:03:57pm", "schedule_type": "STATIC", "schedule_name": "random_9", "is_biased_choice":true,"side_choice": "LEFT", "trial_number":12,"observed_reward":0,"unobserved_reward":0},{"RT":2664,"time": "2018-08-15 06:03:59pm", "schedule_type": "STATIC", "schedule_name": "random_9", "is_biased_choice":true,"side_choice": "LEFT", "trial_number":13,"observed_reward":0,"unobserved_reward":0},{"RT":2903,"time": "2018-08-15 06:04:02pm", "schedule_type": "STATIC", "schedule_name": "random_9", "is_biased_choice":false,"side_choice": "RIGHT", "trial_number":14,"observed_reward":0,"unobserved_reward":1},{"RT":2641,"time": "2018-08-15 06:04:05pm", "schedule_type": "STATIC", "schedule_name": "random_9", "is_biased_choice":true,"side_choice": "LEFT", "trial_number":15,"observed_reward":1,"unobserved_reward":1},{"RT":3291,"time": "2018-08-15 06:04:08pm", "schedule_type": "STATIC", "schedule_name": "random_9", "is_biased_choice":false,"side_choice": "RIGHT", "trial_number":16,"observed_reward":1,"unobserved_reward":0},{"RT":3020,"time": "2018-08-15 06:04:11pm", "schedule_type": "STATIC", "schedule_name": "random_9", "is_biased_choice":false,"side_choice": "RIGHT", "trial_number":17,"observed_reward":0,"unobserved_reward":0},{"RT":2720,"time": "2018-08-15 06:04:14pm", "schedule_type": "STATIC", "schedule_name": "random_9", "is_biased_choice":false,"side_choice": "RIGHT", "trial_number":18,"observed_reward":0,"unobserved_reward":0},{"RT":2450,"time": "2018-08-15 06:04:16pm", "schedule_type": "STATIC", "schedule_name": "random_9", "is_biased_choice":false,"side_choice": "RIGHT", "trial_number":19,"observed_reward":0,"unobserved_reward":0},{"RT":2438,"time": "2018-08-15 06:04:18pm", "schedule_type": "STATIC", "schedule_name": "random_9", "is_biased_choice":false,"side_choice": "RIGHT", "trial_number":20,"observed_reward":0,"unobserved_reward":1},{"RT":2449,"time": "2018-08-15 06:04:21pm", "schedule_type": "STATIC", "schedule_name": "random_9", "is_biased_choice":true,"side_choice": "LEFT", "trial_number":21,"observed_reward":0,"unobserved_reward":0},{"RT":3392,"time": "2018-08-15 06:04:25pm", "schedule_type": "STATIC", "schedule_name": "random_9", "is_biased_choice":true,"side_choice": "LEFT", "trial_number":22,"observed_reward":0,"unobserved_reward":0},{"RT":3048,"time": "2018-08-15 06:04:27pm", "schedule_type": "STATIC", "schedule_name": "random_9", "is_biased_choice":false,"side_choice": "RIGHT", "trial_number":23,"observed_reward":0,"unobserved_reward":0},{"RT":2977,"time": "2018-08-15 06:04:31pm", "schedule_type": "STATIC", "schedule_name": "random_9", "is_biased_choice":true,"side_choice": "LEFT", "trial_number":24,"observed_reward":0,"unobserved_reward":0},{"RT":2980,"time": "2018-08-15 06:04:33pm", "schedule_type": "STATIC", "schedule_name": "random_9", "is_biased_choice":false,"side_choice": "RIGHT", "trial_number":25,"observed_reward":1,"unobserved_reward":0},{"RT":3570,"time": "2018-08-15 06:04:37pm", "schedule_type": "STATIC", "schedule_name": "random_9", "is_biased_choice":false,"side_choice": "RIGHT", "trial_number":26,"observed_reward":0,"unobserved_reward":0},{"RT":2768,"time": "2018-08-15 06:04:40pm", "schedule_type": "STATIC", "schedule_name": "random_9", "is_biased_choice":true,"side_choice": "LEFT", "trial_number":27,"observed_reward":0,"unobserved_reward":0},{"RT":3076,"time": "2018-08-15 06:04:43pm", "schedule_type": "STATIC", "schedule_name": "random_9", "is_biased_choice":false,"side_choice": "RIGHT", "trial_number":28,"observed_reward":0,"unobserved_reward":0},{"RT":2788,"time": "2018-08-15 06:04:46pm", "schedule_type": "STATIC", "schedule_name": "random_9", "is_biased_choice":true,"side_choice": "LEFT", "trial_number":29,"observed_reward":0,"unobserved_reward":0},{"RT":2425,"time": "2018-08-15 06:04:48pm", "schedule_type": "STATIC", "schedule_name": "random_9", "is_biased_choice":true,"side_choice": "LEFT", "trial_number":30,"observed_reward":0,"unobserved_reward":1},{"RT":6695,"time": "2018-08-15 06:04:55pm", "schedule_type": "STATIC", "schedule_name": "random_9", "is_biased_choice":false,"side_choice": "RIGHT", "trial_number":31,"observed_reward":1,"unobserved_reward":0},{"RT":3928,"time": "2018-08-15 06:04:59pm", "schedule_type": "STATIC", "schedule_name": "random_9", "is_biased_choice":true,"side_choice": "LEFT", "trial_number":32,"observed_reward":0,"unobserved_reward":1},{"RT":3352,"time": "2018-08-15 06:05:02pm", "schedule_type": "STATIC", "schedule_name": "random_9", "is_biased_choice":false,"side_choice": "RIGHT", "trial_number":33,"observed_reward":0,"unobserved_reward":0},{"RT":2825,"time": "2018-08-15 06:05:05pm", "schedule_type": "STATIC", "schedule_name": "random_9", "is_biased_choice":true,"side_choice": "LEFT", "trial_number":34,"observed_reward":0,"unobserved_reward":0},{"RT":2608,"time": "2018-08-15 06:05:07pm", "schedule_type": "STATIC", "schedule_name": "random_9", "is_biased_choice":true,"side_choice": "LEFT", "trial_number":35,"observed_reward":0,"unobserved_reward":0},{"RT":5128,"time": "2018-08-15 06:05:13pm", "schedule_type": "STATIC", "schedule_name": "random_9", "is_biased_choice":false,"side_choice": "RIGHT", "trial_number":36,"observed_reward":1,"unobserved_reward":0},{"RT":9432,"time": "2018-08-15 06:05:22pm", "schedule_type": "STATIC", "schedule_name": "random_9", "is_biased_choice":false,"side_choice": "RIGHT", "trial_number":37,"observed_reward":0,"unobserved_reward":0},{"RT":3863,"time": "2018-08-15 06:05:26pm", "schedule_type": "STATIC", "schedule_name": "random_9", "is_biased_choice":true,"side_choice": "LEFT", "trial_number":38,"observed_reward":1,"unobserved_reward":1},{"RT":2884,"time": "2018-08-15 06:05:29pm", "schedule_type": "STATIC", "schedule_name": "random_9", "is_biased_choice":true,"side_choice": "LEFT", "trial_number":39,"observed_reward":0,"unobserved_reward":0},{"RT":2876,"time": "2018-08-15 06:05:32pm", "schedule_type": "STATIC", "schedule_name": "random_9", "is_biased_choice":true,"side_choice": "LEFT", "trial_number":40,"observed_reward":0,"unobserved_reward":0},{"RT":2384,"time": "2018-08-15 06:05:34pm", "schedule_type": "STATIC", "schedule_name": "random_9", "is_biased_choice":true,"side_choice": "LEFT", "trial_number":41,"observed_reward":1,"unobserved_reward":0},{"RT":2872,"time": "2018-08-15 06:05:37pm", "schedule_type": "STATIC", "schedule_name": "random_9", "is_biased_choice":true,"side_choice": "LEFT", "trial_number":42,"observed_reward":1,"unobserved_reward":1},{"RT":2688,"time": "2018-08-15 06:05:40pm", "schedule_type": "STATIC", "schedule_name": "random_9", "is_biased_choice":true,"side_choice": "LEFT", "trial_number":43,"observed_reward":0,"unobserved_reward":0},{"RT":2872,"time": "2018-08-15 06:05:42pm", "schedule_type": "STATIC", "schedule_name": "random_9", "is_biased_choice":true,"side_choice": "LEFT", "trial_number":44,"observed_reward":1,"unobserved_reward":0},{"RT":2993,"time": "2018-08-15 06:05:45pm", "schedule_type": "STATIC", "schedule_name": "random_9", "is_biased_choice":true,"side_choice": "LEFT", "trial_number":45,"observed_reward":0,"unobserved_reward":0},{"RT":3134,"time": "2018-08-15 06:05:49pm", "schedule_type": "STATIC", "schedule_name": "random_9", "is_biased_choice":true,"side_choice": "LEFT", "trial_number":46,"observed_reward":0,"unobserved_reward":0},{"RT":2853,"time": "2018-08-15 06:05:51pm", "schedule_type": "STATIC", "schedule_name": "random_9", "is_biased_choice":true,"side_choice": "LEFT", "trial_number":47,"observed_reward":1,"unobserved_reward":0},{"RT":2812,"time": "2018-08-15 06:05:54pm", "schedule_type": "STATIC", "schedule_name": "random_9", "is_biased_choice":false,"side_choice": "RIGHT", "trial_number":48,"observed_reward":0,"unobserved_reward":1},{"RT":2674,"time": "2018-08-15 06:05:57pm", "schedule_type": "STATIC", "schedule_name": "random_9", "is_biased_choice":true,"side_choice": "LEFT", "trial_number":49,"observed_reward":0,"unobserved_reward":0},{"RT":2871,"time": "2018-08-15 06:06:00pm", "schedule_type": "STATIC", "schedule_name": "random_9", "is_biased_choice":true,"side_choice": "LEFT", "trial_number":50,"observed_reward":0,"unobserved_reward":0},{"RT":2529,"time": "2018-08-15 06:06:02pm", "schedule_type": "STATIC", "schedule_name": "random_9", "is_biased_choice":true,"side_choice": "LEFT", "trial_number":51,"observed_reward":0,"unobserved_reward":0},{"RT":2663,"time": "2018-08-15 06:06:05pm", "schedule_type": "STATIC", "schedule_name": "random_9", "is_biased_choice":true,"side_choice": "LEFT", "trial_number":52,"observed_reward":0,"unobserved_reward":0},{"RT":2832,"time": "2018-08-15 06:06:08pm", "schedule_type": "STATIC", "schedule_name": "random_9", "is_biased_choice":true,"side_choice": "LEFT", "trial_number":53,"observed_reward":1,"unobserved_reward":0},{"RT":3520,"time": "2018-08-15 06:06:12pm", "schedule_type": "STATIC", "schedule_name": "random_9", "is_biased_choice":false,"side_choice": "RIGHT", "trial_number":54,"observed_reward":0,"unobserved_reward":1},{"RT":2896,"time": "2018-08-15 06:06:14pm", "schedule_type": "STATIC", "schedule_name": "random_9", "is_biased_choice":true,"side_choice": "LEFT", "trial_number":55,"observed_reward":0,"unobserved_reward":0},{"RT":2640,"time": "2018-08-15 06:06:17pm", "schedule_type": "STATIC", "schedule_name": "random_9", "is_biased_choice":false,"side_choice": "RIGHT", "trial_number":56,"observed_reward":0,"unobserved_reward":1},{"RT":2504,"time": "2018-08-15 06:06:20pm", "schedule_type": "STATIC", "schedule_name": "random_9", "is_biased_choice":true,"side_choice": "LEFT", "trial_number":57,"observed_reward":0,"unobserved_reward":0},{"RT":2719,"time": "2018-08-15 06:06:22pm", "schedule_type": "STATIC", "schedule_name": "random_9", "is_biased_choice":true,"side_choice": "LEFT", "trial_number":58,"observed_reward":0,"unobserved_reward":0},{"RT":2612,"time": "2018-08-15 06:06:25pm", "schedule_type": "STATIC", "schedule_name": "random_9", "is_biased_choice":true,"side_choice": "LEFT", "trial_number":59,"observed_reward":0,"unobserved_reward":0},{"RT":2789,"time": "2018-08-15 06:06:27pm", "schedule_type": "STATIC", "schedule_name": "random_9", "is_biased_choice":true,"side_choice": "LEFT", "trial_number":60,"observed_reward":0,"unobserved_reward":0},{"RT":2511,"time": "2018-08-15 06:06:30pm", "schedule_type": "STATIC", "schedule_name": "random_9", "is_biased_choice":false,"side_choice": "RIGHT", "trial_number":61,"observed_reward":1,"unobserved_reward":0},{"RT":3089,"time": "2018-08-15 06:06:33pm", "schedule_type": "STATIC", "schedule_name": "random_9", "is_biased_choice":false,"side_choice": "RIGHT", "trial_number":62,"observed_reward":0,"unobserved_reward":1},{"RT":2712,"time": "2018-08-15 06:06:36pm", "schedule_type": "STATIC", "schedule_name": "random_9", "is_biased_choice":true,"side_choice": "LEFT", "trial_number":63,"observed_reward":0,"unobserved_reward":1},{"RT":2439,"time": "2018-08-15 06:06:38pm", "schedule_type": "STATIC", "schedule_name": "random_9", "is_biased_choice":false,"side_choice": "RIGHT", "trial_number":64,"observed_reward":1,"unobserved_reward":0},{"RT":3576,"time": "2018-08-15 06:06:42pm", "schedule_type": "STATIC", "schedule_name": "random_9", "is_biased_choice":true,"side_choice": "LEFT", "trial_number":65,"observed_reward":0,"unobserved_reward":0},{"RT":2680,"time": "2018-08-15 06:06:44pm", "schedule_type": "STATIC", "schedule_name": "random_9", "is_biased_choice":false,"side_choice": "RIGHT", "trial_number":66,"observed_reward":0,"unobserved_reward":1},{"RT":2800,"time": "2018-08-15 06:06:47pm", "schedule_type": "STATIC", "schedule_name": "random_9", "is_biased_choice":true,"side_choice": "LEFT", "trial_number":67,"observed_reward":0,"unobserved_reward":1},{"RT":5049,"time": "2018-08-15 06:06:53pm", "schedule_type": "STATIC", "schedule_name": "random_9", "is_biased_choice":false,"side_choice": "RIGHT", "trial_number":68,"observed_reward":0,"unobserved_reward":0},{"RT":2689,"time": "2018-08-15 06:06:55pm", "schedule_type": "STATIC", "schedule_name": "random_9", "is_biased_choice":true,"side_choice": "LEFT", "trial_number":69,"observed_reward":0,"unobserved_reward":1},{"RT":2391,"time": "2018-08-15 06:06:57pm", "schedule_type": "STATIC", "schedule_name": "random_9", "is_biased_choice":false,"side_choice": "RIGHT", "trial_number":70,"observed_reward":1,"unobserved_reward":0},{"RT":5360,"time": "2018-08-15 06:07:03pm", "schedule_type": "STATIC", "schedule_name": "random_9", "is_biased_choice":false,"side_choice": "RIGHT", "trial_number":71,"observed_reward":0,"unobserved_reward":0},{"RT":3345,"time": "2018-08-15 06:07:06pm", "schedule_type": "STATIC", "schedule_name": "random_9", "is_biased_choice":true,"side_choice": "LEFT", "trial_number":72,"observed_reward":0,"unobserved_reward":0},{"RT":15151,"time": "2018-08-15 06:07:22pm", "schedule_type": "STATIC", "schedule_name": "random_9", "is_biased_choice":true,"side_choice": "LEFT", "trial_number":73,"observed_reward":0,"unobserved_reward":1},{"RT":2747,"time": "2018-08-15 06:07:24pm", "schedule_type": "STATIC", "schedule_name": "random_9", "is_biased_choice":true,"side_choice": "LEFT", "trial_number":74,"observed_reward":0,"unobserved_reward":1},{"RT":3214,"time": "2018-08-15 06:07:27pm", "schedule_type": "STATIC", "schedule_name": "random_9", "is_biased_choice":false,"side_choice": "RIGHT", "trial_number":75,"observed_reward":1,"unobserved_reward":0},{"RT":3831,"time": "2018-08-15 06:07:31pm", "schedule_type": "STATIC", "schedule_name": "random_9", "is_biased_choice":false,"side_choice": "RIGHT", "trial_number":76,"observed_reward":0,"unobserved_reward":0},{"RT":3192,"time": "2018-08-15 06:07:34pm", "schedule_type": "STATIC", "schedule_name": "random_9", "is_biased_choice":false,"side_choice": "RIGHT", "trial_number":77,"observed_reward":0,"unobserved_reward":0},{"RT":2544,"time": "2018-08-15 06:07:37pm", "schedule_type": "STATIC", "schedule_name": "random_9", "is_biased_choice":false,"side_choice": "RIGHT", "trial_number":78,"observed_reward":0,"unobserved_reward":1},{"RT":2480,"time": "2018-08-15 06:07:39pm", "schedule_type": "STATIC", "schedule_name": "random_9", "is_biased_choice":false,"side_choice": "RIGHT", "trial_number":79,"observed_reward":0,"unobserved_reward":0},{"RT":2823,"time": "2018-08-15 06:07:42pm", "schedule_type": "STATIC", "schedule_name": "random_9", "is_biased_choice":true,"side_choice": "LEFT", "trial_number":80,"observed_reward":0,"unobserved_reward":1},{"RT":2528,"time": "2018-08-15 06:07:45pm", "schedule_type": "STATIC", "schedule_name": "random_9", "is_biased_choice":false,"side_choice": "RIGHT", "trial_number":81,"observed_reward":0,"unobserved_reward":1},{"RT":2786,"time": "2018-08-15 06:07:47pm", "schedule_type": "STATIC", "schedule_name": "random_9", "is_biased_choice":true,"side_choice": "LEFT", "trial_number":82,"observed_reward":0,"unobserved_reward":1},{"RT":2854,"time": "2018-08-15 06:07:51pm", "schedule_type": "STATIC", "schedule_name": "random_9", "is_biased_choice":false,"side_choice": "RIGHT", "trial_number":83,"observed_reward":0,"unobserved_reward":1},{"RT":2537,"time": "2018-08-15 06:07:53pm", "schedule_type": "STATIC", "schedule_name": "random_9", "is_biased_choice":true,"side_choice": "LEFT", "trial_number":84,"observed_reward":0,"unobserved_reward":0},{"RT":2551,"time": "2018-08-15 06:07:55pm", "schedule_type": "STATIC", "schedule_name": "random_9", "is_biased_choice":false,"side_choice": "RIGHT", "trial_number":85,"observed_reward":0,"unobserved_reward":0},{"RT":3288,"time": "2018-08-15 06:07:59pm", "schedule_type": "STATIC", "schedule_name": "random_9", "is_biased_choice":true,"side_choice": "LEFT", "trial_number":86,"observed_reward":0,"unobserved_reward":0},{"RT":4200,"time": "2018-08-15 06:08:03pm", "schedule_type": "STATIC", "schedule_name": "random_9", "is_biased_choice":false,"side_choice": "RIGHT", "trial_number":87,"observed_reward":0,"unobserved_reward":1},{"RT":3216,"time": "2018-08-15 06:08:07pm", "schedule_type": "STATIC", "schedule_name": "random_9", "is_biased_choice":true,"side_choice": "LEFT", "trial_number":88,"observed_reward":0,"unobserved_reward":0},{"RT":3155,"time": "2018-08-15 06:08:09pm", "schedule_type": "STATIC", "schedule_name": "random_9", "is_biased_choice":true,"side_choice": "LEFT", "trial_number":89,"observed_reward":0,"unobserved_reward":0},{"RT":2437,"time": "2018-08-15 06:08:12pm", "schedule_type": "STATIC", "schedule_name": "random_9", "is_biased_choice":false,"side_choice": "RIGHT", "trial_number":90,"observed_reward":0,"unobserved_reward":1},{"RT":2808,"time": "2018-08-15 06:08:14pm", "schedule_type": "STATIC", "schedule_name": "random_9", "is_biased_choice":false,"side_choice": "RIGHT", "trial_number":91,"observed_reward":0,"unobserved_reward":1},{"RT":2576,"time": "2018-08-15 06:08:17pm", "schedule_type": "STATIC", "schedule_name": "random_9", "is_biased_choice":true,"side_choice": "LEFT", "trial_number":92,"observed_reward":1,"unobserved_reward":0},{"RT":3289,"time": "2018-08-15 06:08:21pm", "schedule_type": "STATIC", "schedule_name": "random_9", "is_biased_choice":true,"side_choice": "LEFT", "trial_number":93,"observed_reward":1,"unobserved_reward":0},{"RT":3327,"time": "2018-08-15 06:08:24pm", "schedule_type": "STATIC", "schedule_name": "random_9", "is_biased_choice":true,"side_choice": "LEFT", "trial_number":94,"observed_reward":0,"unobserved_reward":1},{"RT":2915,"time": "2018-08-15 06:08:26pm", "schedule_type": "STATIC", "schedule_name": "random_9", "is_biased_choice":true,"side_choice": "LEFT", "trial_number":95,"observed_reward":1,"unobserved_reward":0},{"RT":3573,"time": "2018-08-15 06:08:30pm", "schedule_type": "STATIC", "schedule_name": "random_9", "is_biased_choice":true,"side_choice": "LEFT", "trial_number":96,"observed_reward":0,"unobserved_reward":0},{"RT":2504,"time": "2018-08-15 06:08:33pm", "schedule_type": "STATIC", "schedule_name": "random_9", "is_biased_choice":true,"side_choice": "LEFT", "trial_number":97,"observed_reward":1,"unobserved_reward":0},{"RT":4752,"time": "2018-08-15 06:08:37pm", "schedule_type": "STATIC", "schedule_name": "random_9", "is_biased_choice":true,"side_choice": "LEFT", "trial_number":98,"observed_reward":0,"unobserved_reward":1},