trial_number, time, schedule_type, schedule_name, is_biased_choice, side_choice, RT, observed_reward, unobserved_reward, biased_reward, unbiased_reward
0,2018-08-15 04:39:00pm, STATIC, random_11, false, LEFT, 2455, 0, 0, 0, 0
1,2018-08-15 04:39:03pm, STATIC, random_11, true, RIGHT, 3559, 1, 0, 1, 0
2,2018-08-15 04:39:06pm, STATIC, random_11, true, RIGHT, 3159, 0, 0, 0, 0
3,2018-08-15 04:39:09pm, STATIC, random_11, true, RIGHT, 2708, 0, 0, 0, 0
4,2018-08-15 04:39:12pm, STATIC, random_11, true, RIGHT, 2953, 0, 0, 0, 0
5,2018-08-15 04:39:15pm, STATIC, random_11, false, LEFT, 2551, 1, 1, 1, 1
6,2018-08-15 04:39:18pm, STATIC, random_11, false, LEFT, 3026, 0, 1, 1, 0
7,2018-08-15 04:39:20pm, STATIC, random_11, true, RIGHT, 2479, 1, 1, 1, 1
8,2018-08-15 04:39:23pm, STATIC, random_11, false, LEFT, 2672, 1, 0, 0, 1
9,2018-08-15 04:39:25pm, STATIC, random_11, true, RIGHT, 2648, 0, 0, 0, 0
10,2018-08-15 04:39:28pm, STATIC, random_11, false, LEFT, 2819, 0, 0, 0, 0
11,2018-08-15 04:39:31pm, STATIC, random_11, false, LEFT, 2449, 0, 0, 0, 0
12,2018-08-15 04:39:35pm, STATIC, random_11, true, RIGHT, 4476, 0, 0, 0, 0
13,2018-08-15 04:39:41pm, STATIC, random_11, true, RIGHT, 5262, 0, 0, 0, 0
14,2018-08-15 04:39:43pm, STATIC, random_11, false, LEFT, 2720, 0, 1, 1, 0
15,2018-08-15 04:39:46pm, STATIC, random_11, true, RIGHT, 2575, 0, 0, 0, 0
16,2018-08-15 04:39:48pm, STATIC, random_11, false, LEFT, 2609, 0, 0, 0, 0
17,2018-08-15 04:39:51pm, STATIC, random_11, false, LEFT, 2491, 0, 1, 1, 0
18,2018-08-15 04:39:53pm, STATIC, random_11, true, RIGHT, 2527, 0, 1, 0, 1
19,2018-08-15 04:40:20pm, STATIC, random_11, false, LEFT, 26364, 0, 0, 0, 0
20,2018-08-15 04:40:25pm, STATIC, random_11, true, RIGHT, 5345, 0, 0, 0, 0
21,2018-08-15 04:40:29pm, STATIC, random_11, true, RIGHT, 4215, 0, 0, 0, 0
22,2018-08-15 04:40:33pm, STATIC, random_11, false, LEFT, 3694, 1, 0, 0, 1
23,2018-08-15 04:40:36pm, STATIC, random_11, false, LEFT, 2734, 0, 0, 0, 0
24,2018-08-15 04:40:39pm, STATIC, random_11, true, RIGHT, 3184, 0, 0, 0, 0
25,2018-08-15 04:40:43pm, STATIC, random_11, false, LEFT, 3595, 0, 0, 0, 0
26,2018-08-15 04:40:45pm, STATIC, random_11, true, RIGHT, 2673, 0, 0, 0, 0
27,2018-08-15 04:40:56pm, STATIC, random_11, false, LEFT, 11122, 0, 1, 1, 0
28,2018-08-15 04:41:03pm, STATIC, random_11, false, LEFT, 6792, 0, 0, 0, 0
29,2018-08-15 04:41:06pm, STATIC, random_11, true, RIGHT, 3304, 0, 0, 0, 0
30,2018-08-15 04:41:13pm, STATIC, random_11, false, LEFT, 6489, 1, 1, 1, 1
31,2018-08-15 04:41:16pm, STATIC, random_11, false, LEFT, 2600, 1, 0, 0, 1
32,2018-08-15 04:41:20pm, STATIC, random_11, false, LEFT, 4522, 0, 0, 0, 0
33,2018-08-15 04:41:24pm, STATIC, random_11, true, RIGHT, 3498, 0, 1, 0, 1
34,2018-08-15 04:41:26pm, STATIC, random_11, true, RIGHT, 2807, 0, 0, 0, 0
35,2018-08-15 04:41:30pm, STATIC, random_11, false, LEFT, 3585, 0, 0, 0, 0
36,2018-08-15 04:41:47pm, STATIC, random_11, false, LEFT, 16806, 0, 1, 1, 0
37,2018-08-15 04:41:50pm, STATIC, random_11, true, RIGHT, 3681, 1, 0, 1, 0
38,2018-08-15 04:41:53pm, STATIC, random_11, true, RIGHT, 2820, 1, 1, 1, 1
39,2018-08-15 04:41:57pm, STATIC, random_11, true, RIGHT, 3670, 0, 1, 0, 1
40,2018-08-15 04:42:01pm, STATIC, random_11, false, LEFT, 3949, 0, 0, 0, 0
41,2018-08-15 04:42:05pm, STATIC, random_11, true, RIGHT, 4107, 0, 0, 0, 0
42,2018-08-15 04:42:08pm, STATIC, random_11, true, RIGHT, 2661, 0, 0, 0, 0
43,2018-08-15 04:42:11pm, STATIC, random_11, true, RIGHT, 3609, 1, 0, 1, 0
44,2018-08-15 04:42:19pm, STATIC, random_11, true, RIGHT, 7887, 0, 0, 0, 0
45,2018-08-15 04:42:24pm, STATIC, random_11, false, LEFT, 4581, 1, 0, 0, 1
46,2018-08-15 04:42:27pm, STATIC, random_11, false, LEFT, 3440, 0, 0, 0, 0
47,2018-08-15 04:42:32pm, STATIC, random_11, false, LEFT, 4775, 0, 0, 0, 0
48,2018-08-15 04:42:34pm, STATIC, random_11, true, RIGHT, 2505, 1, 0, 1, 0
49,2018-08-15 04:42:37pm, STATIC, random_11, true, RIGHT, 2892, 0, 1, 0, 1
50,2018-08-15 04:43:42pm, STATIC, random_11, true, RIGHT, 64880, 1, 0, 1, 0
51,2018-08-15 04:43:45pm, STATIC, random_11, true, RIGHT, 2473, 0, 1, 0, 1
52,2018-08-15 04:43:47pm, STATIC, random_11, true, RIGHT, 2352, 0, 1, 0, 1
53,2018-08-15 04:43:51pm, STATIC, random_11, true, RIGHT, 4264, 0, 0, 0, 0
54,2018-08-15 04:43:54pm, STATIC, random_11, false, LEFT, 2699, 0, 0, 0, 0
55,2018-08-15 04:43:57pm, STATIC, random_11, false, LEFT, 2568, 0, 1, 1, 0
56,2018-08-15 04:44:00pm, STATIC, random_11, true, RIGHT, 3082, 0, 1, 0, 1
57,2018-08-15 04:44:03pm, STATIC, random_11, false, LEFT, 2929, 1, 0, 0, 1
58,2018-08-15 04:44:07pm, STATIC, random_11, false, LEFT, 4656, 0, 1, 1, 0
59,2018-08-15 04:44:12pm, STATIC, random_11, true, RIGHT, 4763, 1, 0, 1, 0
60,2018-08-15 04:44:14pm, STATIC, random_11, true, RIGHT, 2383, 0, 0, 0, 0
61,2018-08-15 04:44:17pm, STATIC, random_11, true, RIGHT, 2322, 0, 0, 0, 0
62,2018-08-15 04:44:49pm, STATIC, random_11, true, RIGHT, 32722, 0, 1, 0, 1
63,2018-08-15 04:45:07pm, STATIC, random_11, false, LEFT, 17169, 0, 0, 0, 0
64,2018-08-15 04:45:10pm, STATIC, random_11, true, RIGHT, 3389, 0, 1, 0, 1
65,2018-08-15 04:45:14pm, STATIC, random_11, true, RIGHT, 3598, 0, 1, 0, 1
66,2018-08-15 04:45:17pm, STATIC, random_11, true, RIGHT, 3706, 1, 1, 1, 1
67,2018-08-15 04:45:21pm, STATIC, random_11, true, RIGHT, 3354, 0, 1, 0, 1
68,2018-08-15 04:45:24pm, STATIC, random_11, false, LEFT, 2953, 0, 0, 0, 0
69,2018-08-15 04:45:27pm, STATIC, random_11, true, RIGHT, 3197, 1, 0, 1, 0
70,2018-08-15 04:45:30pm, STATIC, random_11, true, RIGHT, 2892, 0, 0, 0, 0
71,2018-08-15 04:45:39pm, STATIC, random_11, true, RIGHT, 8944, 0, 0, 0, 0
72,2018-08-15 04:45:41pm, STATIC, random_11, true, RIGHT, 2286, 0, 0, 0, 0
73,2018-08-15 04:45:45pm, STATIC, random_11, true, RIGHT, 3745, 0, 0, 0, 0
74,2018-08-15 04:45:49pm, STATIC, random_11, true, RIGHT, 3876, 0, 0, 0, 0
75,2018-08-15 04:45:51pm, STATIC, random_11, true, RIGHT, 2289, 0, 1, 0, 1
76,2018-08-15 04:46:13pm, STATIC, random_11, true, RIGHT, 22301, 0, 0, 0, 0
77,2018-08-15 04:46:16pm, STATIC, random_11, false, LEFT, 2942, 0, 0, 0, 0
78,2018-08-15 04:46:19pm, STATIC, random_11, false, LEFT, 2770, 0, 0, 0, 0
79,2018-08-15 04:46:22pm, STATIC, random_11, true, RIGHT, 2661, 0, 0, 0, 0
80,2018-08-15 04:46:24pm, STATIC, random_11, false, LEFT, 2345, 0, 1, 1, 0
81,2018-08-15 04:46:27pm, STATIC, random_11, true, RIGHT, 3282, 0, 0, 0, 0
82,2018-08-15 04:46:30pm, STATIC, random_11, false, LEFT, 2507, 0, 1, 1, 0
83,2018-08-15 04:46:32pm, STATIC, random_11, false, LEFT, 2513, 0, 0, 0, 0
84,2018-08-15 04:46:34pm, STATIC, random_11, false, LEFT, 2357, 0, 1, 1, 0
85,2018-08-15 04:46:37pm, STATIC, random_11, true, RIGHT, 2650, 0, 0, 0, 0
86,2018-08-15 04:47:33pm, STATIC, random_11, false, LEFT, 55596, 0, 1, 1, 0
87,2018-08-15 04:47:37pm, STATIC, random_11, true, RIGHT, 4568, 0, 0, 0, 0
88,2018-08-15 04:47:40pm, STATIC, random_11, true, RIGHT, 3074, 0, 0, 0, 0
89,2018-08-15 04:47:43pm, STATIC, random_11, true, RIGHT, 2539, 1, 0, 1, 0
90,2018-08-15 04:47:46pm, STATIC, random_11, false, LEFT, 3160, 1, 0, 0, 1
91,2018-08-15 04:47:50pm, STATIC, random_11, true, RIGHT, 4131, 0, 0, 0, 0
92,2018-08-15 04:47:54pm, STATIC, random_11, false, LEFT, 3391, 0, 0, 0, 0
93,2018-08-15 04:47:58pm, STATIC, random_11, true, RIGHT, 3998, 0, 0, 0, 0
94,2018-08-15 04:48:00pm, STATIC, random_11, false, LEFT, 2734, 0, 0, 0, 0
95,2018-08-15 04:48:03pm, STATIC, random_11, true, RIGHT, 2540, 1, 1, 1, 1
96,2018-08-15 04:48:06pm, STATIC, random_11, false, LEFT, 2940, 0, 0, 0, 0
97,2018-08-15 04:48:09pm, STATIC, random_11, true, RIGHT, 3354, 0, 0, 0, 0
98,2018-08-15 04:48:13pm, STATIC, random_11, false, LEFT, 3840, 1, 0, 0, 1
99,2018-08-15 04:48:15pm, STATIC, random_11, true, RIGHT, 2371, 0, 0, 0, 0
