[{"RT":3802,"time": "2018-08-15 01:46:37pm", "schedule_type": "STATIC", "schedule_name": "random_11", "is_biased_choice":false,"side_choice": "RIGHT", "trial_number":0,"observed_reward":0,"unobserved_reward":0},{"RT":2852,"time": "2018-08-15 01:46:40pm", "schedule_type": "STATIC", "schedule_name": "random_11", "is_biased_choice":true,"side_choice": "LEFT", "trial_number":1,"observed_reward":1,"unobserved_reward":0},{"RT":2648,"time": "2018-08-15 01:46:43pm", "schedule_type": "STATIC", "schedule_name": "random_11", "is_biased_choice":true,"side_choice": "LEFT", "trial_number":2,"observed_reward":0,"unobserved_reward":0},{"RT":2966,"time": "2018-08-15 01:46:46pm", "schedule_type": "STATIC", "schedule_name": "random_11", "is_biased_choice":true,"side_choice": "LEFT", "trial_number":3,"observed_reward":0,"unobserved_reward":0},{"RT":2551,"time": "2018-08-15 01:46:48pm", "schedule_type": "STATIC", "schedule_name": "random_11", "is_biased_choice":false,"side_choice": "RIGHT", "trial_number":4,"observed_reward":0,"unobserved_reward":0},{"RT":2684,"time": "2018-08-15 01:46:51pm", "schedule_type": "STATIC", "schedule_name": "random_11", "is_biased_choice":false,"side_choice": "RIGHT", "trial_number":5,"observed_reward":1,"unobserved_reward":1},{"RT":2590,"time": "2018-08-15 01:46:53pm", "schedule_type": "STATIC", "schedule_name": "random_11", "is_biased_choice":false,"side_choice": "RIGHT", "trial_number":6,"observed_reward":0,"unobserved_reward":1},{"RT":2776,"time": "2018-08-15 01:46:56pm", "schedule_type": "STATIC", "schedule_name": "random_11", "is_biased_choice":false,"side_choice": "RIGHT", "trial_number":7,"observed_reward":1,"unobserved_reward":1},{"RT":2883,"time": "2018-08-15 01:46:59pm", "schedule_type": "STATIC", "schedule_name": "random_11", "is_biased_choice":false,"side_choice": "RIGHT", "trial_number":8,"observed_reward":1,"unobserved_reward":0},{"RT":2552,"time": "2018-08-15 01:47:02pm", "schedule_type": "STATIC", "schedule_name": "random_11", "is_biased_choice":false,"side_choice": "RIGHT", "trial_number":9,"observed_reward":0,"unobserved_reward":0},{"RT":2983,"time": "2018-08-15 01:47:05pm", "schedule_type": "STATIC", "schedule_name": "random_11", "is_biased_choice":false,"side_choice": "RIGHT", "trial_number":10,"observed_reward":0,"unobserved_reward":0},{"RT":2532,"time": "2018-08-15 01:47:07pm", "schedule_type": "STATIC", "schedule_name": "random_11", "is_biased_choice":false,"side_choice": "RIGHT", "trial_number":11,"observed_reward":0,"unobserved_reward":0},{"RT":2434,"time": "2018-08-15 01:47:10pm", "schedule_type": "STATIC", "schedule_name": "random_11", "is_biased_choice":false,"side_choice": "RIGHT", "trial_number":12,"observed_reward":0,"unobserved_reward":0},{"RT":2416,"time": "2018-08-15 01:47:12pm", "schedule_type": "STATIC", "schedule_name": "random_11", "is_biased_choice":false,"side_choice": "RIGHT", "trial_number":13,"observed_reward":0,"unobserved_reward":0},{"RT":2548,"time": "2018-08-15 01:47:15pm", "schedule_type": "STATIC", "schedule_name": "random_11", "is_biased_choice":false,"side_choice": "RIGHT", "trial_number":14,"observed_reward":0,"unobserved_reward":1},{"RT":2602,"time": "2018-08-15 01:47:17pm", "schedule_type": "STATIC", "schedule_name": "random_11", "is_biased_choice":false,"side_choice": "RIGHT", "trial_number":15,"observed_reward":0,"unobserved_reward":0},{"RT":2718,"time": "2018-08-15 01:47:20pm", "schedule_type": "STATIC", "schedule_name": "random_11", "is_biased_choice":true,"side_choice": "LEFT", "trial_number":16,"observed_reward":0,"unobserved_reward":0},{"RT":2699,"time": "2018-08-15 01:47:23pm", "schedule_type": "STATIC", "schedule_name": "random_11", "is_biased_choice":false,"side_choice": "RIGHT", "trial_number":17,"observed_reward":0,"unobserved_reward":1},{"RT":2834,"time": "2018-08-15 01:47:27pm", "schedule_type": "STATIC", "schedule_name": "random_11", "is_biased_choice":false,"side_choice": "RIGHT", "trial_number":18,"observed_reward":1,"unobserved_reward":0},{"RT":3647,"time": "2018-08-15 01:47:29pm", "schedule_type": "STATIC", "schedule_name": "random_11", "is_biased_choice":false,"side_choice": "RIGHT", "trial_number":19,"observed_reward":0,"unobserved_reward":0},{"RT":3019,"time": "2018-08-15 01:47:32pm", "schedule_type": "STATIC", "schedule_name": "random_11", "is_biased_choice":true,"side_choice": "LEFT", "trial_number":20,"observed_reward":0,"unobserved_reward":0},{"RT":2697,"time": "2018-08-15 01:47:35pm", "schedule_type": "STATIC", "schedule_name": "random_11", "is_biased_choice":false,"side_choice": "RIGHT", "trial_number":21,"observed_reward":0,"unobserved_reward":0},{"RT":2919,"time": "2018-08-15 01:47:38pm", "schedule_type": "STATIC", "schedule_name": "random_11", "is_biased_choice":true,"side_choice": "LEFT", "trial_number":22,"observed_reward":0,"unobserved_reward":1},{"RT":2551,"time": "2018-08-15 01:47:40pm", "schedule_type": "STATIC", "schedule_name": "random_11", "is_biased_choice":false,"side_choice": "RIGHT", "trial_number":23,"observed_reward":0,"unobserved_reward":0},{"RT":2680,"time": "2018-08-15 01:47:43pm", "schedule_type": "STATIC", "schedule_name": "random_11", "is_biased_choice":false,"side_choice": "RIGHT", "trial_number":24,"observed_reward":0,"unobserved_reward":0},{"RT":2668,"time": "2018-08-15 01:47:46pm", "schedule_type": "STATIC", "schedule_name": "random_11", "is_biased_choice":false,"side_choice": "RIGHT", "trial_number":25,"observed_reward":0,"unobserved_reward":0},{"RT":2700,"time": "2018-08-15 01:47:48pm", "schedule_type": "STATIC", "schedule_name": "random_11", "is_biased_choice":true,"side_choice": "LEFT", "trial_number":26,"observed_reward":0,"unobserved_reward":0},{"RT":2631,"time": "2018-08-15 01:47:51pm", "schedule_type": "STATIC", "schedule_name": "random_11", "is_biased_choice":false,"side_choice": "RIGHT", "trial_number":27,"observed_reward":0,"unobserved_reward":1},{"RT":2695,"time": "2018-08-15 01:47:54pm", "schedule_type": "STATIC", "schedule_name": "random_11", "is_biased_choice":false,"side_choice": "RIGHT", "trial_number":28,"observed_reward":0,"unobserved_reward":0},{"RT":3091,"time": "2018-08-15 01:47:57pm", "schedule_type": "STATIC", "schedule_name": "random_11", "is_biased_choice":true,"side_choice": "LEFT", "trial_number":29,"observed_reward":0,"unobserved_reward":0},{"RT":2281,"time": "2018-08-15 01:47:59pm", "schedule_type": "STATIC", "schedule_name": "random_11", "is_biased_choice":false,"side_choice": "RIGHT", "trial_number":30,"observed_reward":1,"unobserved_reward":1},{"RT":2701,"time": "2018-08-15 01:48:02pm", "schedule_type": "STATIC", "schedule_name": "random_11", "is_biased_choice":false,"side_choice": "RIGHT", "trial_number":31,"observed_reward":1,"unobserved_reward":0},{"RT":2600,"time": "2018-08-15 01:48:04pm", "schedule_type": "STATIC", "schedule_name": "random_11", "is_biased_choice":false,"side_choice": "RIGHT", "trial_number":32,"observed_reward":0,"unobserved_reward":0},{"RT":2465,"time": "2018-08-15 01:48:07pm", "schedule_type": "STATIC", "schedule_name": "random_11", "is_biased_choice":false,"side_choice": "RIGHT", "trial_number":33,"observed_reward":1,"unobserved_reward":0},{"RT":2436,"time": "2018-08-15 01:48:09pm", "schedule_type": "STATIC", "schedule_name": "random_11", "is_biased_choice":false,"side_choice": "RIGHT", "trial_number":34,"observed_reward":0,"unobserved_reward":0},{"RT":2498,"time": "2018-08-15 01:48:12pm", "schedule_type": "STATIC", "schedule_name": "random_11", "is_biased_choice":false,"side_choice": "RIGHT", "trial_number":35,"observed_reward":0,"unobserved_reward":0},{"RT":2584,"time": "2018-08-15 01:48:14pm", "schedule_type": "STATIC", "schedule_name": "random_11", "is_biased_choice":true,"side_choice": "LEFT", "trial_number":36,"observed_reward":1,"unobserved_reward":0},{"RT":2551,"time": "2018-08-15 01:48:17pm", "schedule_type": "STATIC", "schedule_name": "random_11", "is_biased_choice":true,"side_choice": "LEFT", "trial_number":37,"observed_reward":1,"unobserved_reward":0},{"RT":2416,"time": "2018-08-15 01:48:19pm", "schedule_type": "STATIC", "schedule_name": "random_11", "is_biased_choice":true,"side_choice": "LEFT", "trial_number":38,"observed_reward":1,"unobserved_reward":1},{"RT":2549,"time": "2018-08-15 01:48:22pm", "schedule_type": "STATIC", "schedule_name": "random_11", "is_biased_choice":true,"side_choice": "LEFT", "trial_number":39,"observed_reward":0,"unobserved_reward":1},{"RT":2568,"time": "2018-08-15 01:48:24pm", "schedule_type": "STATIC", "schedule_name": "random_11", "is_biased_choice":false,"side_choice": "RIGHT", "trial_number":40,"observed_reward":0,"unobserved_reward":0},{"RT":3133,"time": "2018-08-15 01:48:29pm", "schedule_type": "STATIC", "schedule_name": "random_11", "is_biased_choice":true,"side_choice": "LEFT", "trial_number":41,"observed_reward":0,"unobserved_reward":0},{"RT":3566,"time": "2018-08-15 01:48:31pm", "schedule_type": "STATIC", "schedule_name": "random_11", "is_biased_choice":true,"side_choice": "LEFT", "trial_number":42,"observed_reward":0,"unobserved_reward":0},{"RT":3051,"time": "2018-08-15 01:48:34pm", "schedule_type": "STATIC", "schedule_name": "random_11", "is_biased_choice":false,"side_choice": "RIGHT", "trial_number":43,"observed_reward":0,"unobserved_reward":1},{"RT":2444,"time": "2018-08-15 01:48:37pm", "schedule_type": "STATIC", "schedule_name": "random_11", "is_biased_choice":false,"side_choice": "RIGHT", "trial_number":44,"observed_reward":0,"unobserved_reward":0},{"RT":2405,"time": "2018-08-15 01:48:39pm", "schedule_type": "STATIC", "schedule_name": "random_11", "is_biased_choice":false,"side_choice": "RIGHT", "trial_number":45,"observed_reward":1,"unobserved_reward":0},{"RT":2882,"time": "2018-08-15 01:48:42pm", "schedule_type": "STATIC", "schedule_name": "random_11", "is_biased_choice":true,"side_choice": "LEFT", "trial_number":46,"observed_reward":0,"unobserved_reward":0},{"RT":2751,"time": "2018-08-15 01:48:45pm", "schedule_type": "STATIC", "schedule_name": "random_11", "is_biased_choice":false,"side_choice": "RIGHT", "trial_number":47,"observed_reward":0,"unobserved_reward":0},{"RT":2698,"time": "2018-08-15 01:48:47pm", "schedule_type": "STATIC", "schedule_name": "random_11", "is_biased_choice":true,"side_choice": "LEFT", "trial_number":48,"observed_reward":1,"unobserved_reward":0},{"RT":2670,"time": "2018-08-15 01:48:50pm", "schedule_type": "STATIC", "schedule_name": "random_11", "is_biased_choice":true,"side_choice": "LEFT", "trial_number":49,"observed_reward":0,"unobserved_reward":1},{"RT":2798,"time": "2018-08-15 01:48:53pm", "schedule_type": "STATIC", "schedule_name": "random_11", "is_biased_choice":false,"side_choice": "RIGHT", "trial_number":50,"observed_reward":0,"unobserved_reward":1},{"RT":2699,"time": "2018-08-15 01:48:55pm", "schedule_type": "STATIC", "schedule_name": "random_11", "is_biased_choice":true,"side_choice": "LEFT", "trial_number":51,"observed_reward":0,"unobserved_reward":1},{"RT":2483,"time": "2018-08-15 01:48:58pm", "schedule_type": "STATIC", "schedule_name": "random_11", "is_biased_choice":false,"side_choice": "RIGHT", "trial_number":52,"observed_reward":1,"unobserved_reward":0},{"RT":2502,"time": "2018-08-15 01:49:00pm", "schedule_type": "STATIC", "schedule_name": "random_11", "is_biased_choice":true,"side_choice": "LEFT", "trial_number":53,"observed_reward":0,"unobserved_reward":0},{"RT":2980,"time": "2018-08-15 01:49:03pm", "schedule_type": "STATIC", "schedule_name": "random_11", "is_biased_choice":false,"side_choice": "RIGHT", "trial_number":54,"observed_reward":0,"unobserved_reward":0},{"RT":2604,"time": "2018-08-15 01:49:06pm", "schedule_type": "STATIC", "schedule_name": "random_11", "is_biased_choice":true,"side_choice": "LEFT", "trial_number":55,"observed_reward":1,"unobserved_reward":0},{"RT":2666,"time": "2018-08-15 01:49:09pm", "schedule_type": "STATIC", "schedule_name": "random_11", "is_biased_choice":true,"side_choice": "LEFT", "trial_number":56,"observed_reward":0,"unobserved_reward":1},{"RT":2532,"time": "2018-08-15 01:49:11pm", "schedule_type": "STATIC", "schedule_name": "random_11", "is_biased_choice":false,"side_choice": "RIGHT", "trial_number":57,"observed_reward":1,"unobserved_reward":0},{"RT":2718,"time": "2018-08-15 01:49:14pm", "schedule_type": "STATIC", "schedule_name": "random_11", "is_biased_choice":true,"side_choice": "LEFT", "trial_number":58,"observed_reward":1,"unobserved_reward":0},{"RT":2715,"time": "2018-08-15 01:49:17pm", "schedule_type": "STATIC", "schedule_name": "random_11", "is_biased_choice":true,"side_choice": "LEFT", "trial_number":59,"observed_reward":1,"unobserved_reward":0},{"RT":3117,"time": "2018-08-15 01:49:20pm", "schedule_type": "STATIC", "schedule_name": "random_11", "is_biased_choice":true,"side_choice": "LEFT", "trial_number":60,"observed_reward":0,"unobserved_reward":0},{"RT":3684,"time": "2018-08-15 01:49:24pm", "schedule_type": "STATIC", "schedule_name": "random_11", "is_biased_choice":false,"side_choice": "RIGHT", "trial_number":61,"observed_reward":0,"unobserved_reward":0},{"RT":2599,"time": "2018-08-15 01:49:26pm", "schedule_type": "STATIC", "schedule_name": "random_11", "is_biased_choice":true,"side_choice": "LEFT", "trial_number":62,"observed_reward":0,"unobserved_reward":1},{"RT":4099,"time": "2018-08-15 01:49:30pm", "schedule_type": "STATIC", "schedule_name": "random_11", "is_biased_choice":false,"side_choice": "RIGHT", "trial_number":63,"observed_reward":0,"unobserved_reward":0},{"RT":2567,"time": "2018-08-15 01:49:33pm", "schedule_type": "STATIC", "schedule_name": "random_11", "is_biased_choice":true,"side_choice": "LEFT", "trial_number":64,"observed_reward":0,"unobserved_reward":1},{"RT":2534,"time": "2018-08-15 01:49:35pm", "schedule_type": "STATIC", "schedule_name": "random_11", "is_biased_choice":false,"side_choice": "RIGHT", "trial_number":65,"observed_reward":1,"unobserved_reward":0},{"RT":2533,"time": "2018-08-15 01:49:38pm", "schedule_type": "STATIC", "schedule_name": "random_11", "is_biased_choice":true,"side_choice": "LEFT", "trial_number":66,"observed_reward":1,"unobserved_reward":1},{"RT":2500,"time": "2018-08-15 01:49:40pm", "schedule_type": "STATIC", "schedule_name": "random_11", "is_biased_choice":true,"side_choice": "LEFT", "trial_number":67,"observed_reward":0,"unobserved_reward":1},{"RT":2434,"time": "2018-08-15 01:49:43pm", "schedule_type": "STATIC", "schedule_name": "random_11", "is_biased_choice":false,"side_choice": "RIGHT", "trial_number":68,"observed_reward":0,"unobserved_reward":0},{"RT":2433,"time": "2018-08-15 01:49:45pm", "schedule_type": "STATIC", "schedule_name": "random_11", "is_biased_choice":true,"side_choice": "LEFT", "trial_number":69,"observed_reward":1,"unobserved_reward":0},{"RT":2550,"time": "2018-08-15 01:49:48pm", "schedule_type": "STATIC", "schedule_name": "random_11", "is_biased_choice":true,"side_choice": "LEFT", "trial_number":70,"observed_reward":0,"unobserved_reward":0},{"RT":2550,"time": "2018-08-15 01:49:50pm", "schedule_type": "STATIC", "schedule_name": "random_11", "is_biased_choice":true,"side_choice": "LEFT", "trial_number":71,"observed_reward":0,"unobserved_reward":0},{"RT":2666,"time": "2018-08-15 01:49:53pm", "schedule_type": "STATIC", "schedule_name": "random_11", "is_biased_choice":false,"side_choice": "RIGHT", "trial_number":72,"observed_reward":0,"unobserved_reward":0},{"RT":2702,"time": "2018-08-15 01:49:56pm", "schedule_type": "STATIC", "schedule_name": "random_11", "is_biased_choice":true,"side_choice": "LEFT", "trial_number":73,"observed_reward":0,"unobserved_reward":0},{"RT":3462,"time": "2018-08-15 01:49:59pm", "schedule_type": "STATIC", "schedule_name": "random_11", "is_biased_choice":true,"side_choice": "LEFT", "trial_number":74,"observed_reward":0,"unobserved_reward":0},{"RT":2819,"time": "2018-08-15 01:50:02pm", "schedule_type": "STATIC", "schedule_name": "random_11", "is_biased_choice":true,"side_choice": "LEFT", "trial_number":75,"observed_reward":0,"unobserved_reward":1},{"RT":2598,"time": "2018-08-15 01:50:04pm", "schedule_type": "STATIC", "schedule_name": "random_11", "is_biased_choice":false,"side_choice": "RIGHT", "trial_number":76,"observed_reward":0,"unobserved_reward":0},{"RT":2501,"time": "2018-08-15 01:50:07pm", "schedule_type": "STATIC", "schedule_name": "random_11", "is_biased_choice":false,"side_choice": "RIGHT", "trial_number":77,"observed_reward":0,"unobserved_reward":0},{"RT":2582,"time": "2018-08-15 01:50:10pm", "schedule_type": "STATIC", "schedule_name": "random_11", "is_biased_choice":true,"side_choice": "LEFT", "trial_number":78,"observed_reward":0,"unobserved_reward":0},{"RT":2501,"time": "2018-08-15 01:50:12pm", "schedule_type": "STATIC", "schedule_name": "random_11", "is_biased_choice":true,"side_choice": "LEFT", "trial_number":79,"observed_reward":0,"unobserved_reward":0},{"RT":2435,"time": "2018-08-15 01:50:15pm", "schedule_type": "STATIC", "schedule_name": "random_11", "is_biased_choice":true,"side_choice": "LEFT", "trial_number":80,"observed_reward":1,"unobserved_reward":0},{"RT":2534,"time": "2018-08-15 01:50:17pm", "schedule_type": "STATIC", "schedule_name": "random_11", "is_biased_choice":true,"side_choice": "LEFT", "trial_number":81,"observed_reward":0,"unobserved_reward":0},{"RT":2532,"time": "2018-08-15 01:50:20pm", "schedule_type": "STATIC", "schedule_name": "random_11", "is_biased_choice":true,"side_choice": "LEFT", "trial_number":82,"observed_reward":1,"unobserved_reward":0},{"RT":2435,"time": "2018-08-15 01:50:22pm", "schedule_type": "STATIC", "schedule_name": "random_11", "is_biased_choice":true,"side_choice": "LEFT", "trial_number":83,"observed_reward":0,"unobserved_reward":0},{"RT":2364,"time": "2018-08-15 01:50:24pm", "schedule_type": "STATIC", "schedule_name": "random_11", "is_biased_choice":true,"side_choice": "LEFT", "trial_number":84,"observed_reward":1,"unobserved_reward":0},{"RT":2534,"time": "2018-08-15 01:50:27pm", "schedule_type": "STATIC", "schedule_name": "random_11", "is_biased_choice":true,"side_choice": "LEFT", "trial_number":85,"observed_reward":0,"unobserved_reward":0},{"RT":2319,"time": "2018-08-15 01:50:29pm", "schedule_type": "STATIC", "schedule_name": "random_11", "is_biased_choice":true,"side_choice": "LEFT", "trial_number":86,"observed_reward":1,"unobserved_reward":0},{"RT":2362,"time": "2018-08-15 01:50:32pm", "schedule_type": "STATIC", "schedule_name": "random_11", "is_biased_choice":true,"side_choice": "LEFT", "trial_number":87,"observed_reward":0,"unobserved_reward":0},{"RT":2453,"time": "2018-08-15 01:50:34pm", "schedule_type": "STATIC", "schedule_name": "random_11", "is_biased_choice":true,"side_choice": "LEFT", "trial_number":88,"observed_reward":0,"unobserved_reward":0},{"RT":2431,"time": "2018-08-15 01:50:36pm", "schedule_type": "STATIC", "schedule_name": "random_11", "is_biased_choice":true,"side_choice": "LEFT", "trial_number":89,"observed_reward":1,"unobserved_reward":0},{"RT":2550,"time": "2018-08-15 01:50:39pm", "schedule_type": "STATIC", "schedule_name": "random_11", "is_biased_choice":true,"side_choice": "LEFT", "trial_number":90,"observed_reward":0,"unobserved_reward":1},{"RT":2552,"time": "2018-08-15 01:50:42pm", "schedule_type": "STATIC", "schedule_name": "random_11", "is_biased_choice":true,"side_choice": "LEFT", "trial_number":91,"observed_reward":0,"unobserved_reward":0},{"RT":2415,"time": "2018-08-15 01:50:44pm", "schedule_type": "STATIC", "schedule_name": "random_11", "is_biased_choice":true,"side_choice": "LEFT", "trial_number":92,"observed_reward":0,"unobserved_reward":0},{"RT":2419,"time": "2018-08-15 01:50:46pm", "schedule_type": "STATIC", "schedule_name": "random_11", "is_biased_choice":true,"side_choice": "LEFT", "trial_number":93,"observed_reward":0,"unobserved_reward":0},{"RT":2415,"time": "2018-08-15 01:50:49pm", "schedule_type": "STATIC", "schedule_name": "random_11", "is_biased_choice":true,"side_choice": "LEFT", "trial_number":94,"observed_reward":0,"unobserved_reward":0},{"RT":2448,"time": "2018-08-15 01:50:51pm", "schedule_type": "STATIC", "schedule_name": "random_11", "is_biased_choice":true,"side_choice": "LEFT", "trial_number":95,"observed_reward":1,"unobserved_reward":1},{"RT":2619,"time": "2018-08-15 01:50:54pm", "schedule_type": "STATIC", "schedule_name": "random_11", "is_biased_choice":true,"side_choice": "LEFT", "trial_number":96,"observed_reward":0,"unobserved_reward":0},{"RT":2449,"time": "2018-08-15 01:50:56pm", "schedule_type": "STATIC", "schedule_name": "random_11", "is_biased_choice":true,"side_choice": "LEFT", "trial_number":97,"observed_reward":0,"unobserved_reward":0},{"RT":2417,"time": "2018-08-15 01:50:59pm", "schedule_type": "STATIC", "schedule_name": "random_11", "is_biased_choice":true,"side_choice": "LEFT", "trial_number":98,"observed_reward":0,"unobserved_reward":1},{"RT":2451,"time": "2018-08-15 01:51:01pm", "schedule_type": "STATIC", "schedule_name": "random_11", "is_biased_choice":true,"side_choice": "LEFT", "trial_number":99,"observed_reward":0,"unobserved_reward":0},