[{"RT":3921,"time": "2018-08-15 01:43:09pm", "schedule_type": "STATIC", "schedule_name": "random_11", "is_biased_choice":false,"side_choice": "LEFT", "trial_number":0,"observed_reward":0,"unobserved_reward":0},{"RT":3208,"time": "2018-08-15 01:43:12pm", "schedule_type": "STATIC", "schedule_name": "random_11", "is_biased_choice":true,"side_choice": "RIGHT", "trial_number":1,"observed_reward":1,"unobserved_reward":0},{"RT":2816,"time": "2018-08-15 01:43:15pm", "schedule_type": "STATIC", "schedule_name": "random_11", "is_biased_choice":true,"side_choice": "RIGHT", "trial_number":2,"observed_reward":0,"unobserved_reward":0},{"RT":2824,"time": "2018-08-15 01:43:18pm", "schedule_type": "STATIC", "schedule_name": "random_11", "is_biased_choice":false,"side_choice": "LEFT", "trial_number":3,"observed_reward":0,"unobserved_reward":0},{"RT":2343,"time": "2018-08-15 01:43:20pm", "schedule_type": "STATIC", "schedule_name": "random_11", "is_biased_choice":true,"side_choice": "RIGHT", "trial_number":4,"observed_reward":0,"unobserved_reward":0},{"RT":2536,"time": "2018-08-15 01:43:23pm", "schedule_type": "STATIC", "schedule_name": "random_11", "is_biased_choice":false,"side_choice": "LEFT", "trial_number":5,"observed_reward":1,"unobserved_reward":1},{"RT":2776,"time": "2018-08-15 01:43:26pm", "schedule_type": "STATIC", "schedule_name": "random_11", "is_biased_choice":true,"side_choice": "RIGHT", "trial_number":6,"observed_reward":1,"unobserved_reward":0},{"RT":2273,"time": "2018-08-15 01:43:28pm", "schedule_type": "STATIC", "schedule_name": "random_11", "is_biased_choice":false,"side_choice": "LEFT", "trial_number":7,"observed_reward":1,"unobserved_reward":1},{"RT":2183,"time": "2018-08-15 01:43:30pm", "schedule_type": "STATIC", "schedule_name": "random_11", "is_biased_choice":true,"side_choice": "RIGHT", "trial_number":8,"observed_reward":0,"unobserved_reward":1},{"RT":2473,"time": "2018-08-15 01:43:33pm", "schedule_type": "STATIC", "schedule_name": "random_11", "is_biased_choice":true,"side_choice": "RIGHT", "trial_number":9,"observed_reward":0,"unobserved_reward":0},{"RT":2199,"time": "2018-08-15 01:43:35pm", "schedule_type": "STATIC", "schedule_name": "random_11", "is_biased_choice":false,"side_choice": "LEFT", "trial_number":10,"observed_reward":0,"unobserved_reward":0},{"RT":2128,"time": "2018-08-15 01:43:37pm", "schedule_type": "STATIC", "schedule_name": "random_11", "is_biased_choice":true,"side_choice": "RIGHT", "trial_number":11,"observed_reward":0,"unobserved_reward":0},{"RT":2232,"time": "2018-08-15 01:43:39pm", "schedule_type": "STATIC", "schedule_name": "random_11", "is_biased_choice":false,"side_choice": "LEFT", "trial_number":12,"observed_reward":0,"unobserved_reward":0},{"RT":2240,"time": "2018-08-15 01:43:41pm", "schedule_type": "STATIC", "schedule_name": "random_11", "is_biased_choice":false,"side_choice": "LEFT", "trial_number":13,"observed_reward":0,"unobserved_reward":0},{"RT":2088,"time": "2018-08-15 01:43:43pm", "schedule_type": "STATIC", "schedule_name": "random_11", "is_biased_choice":true,"side_choice": "RIGHT", "trial_number":14,"observed_reward":1,"unobserved_reward":0},{"RT":2168,"time": "2018-08-15 01:43:46pm", "schedule_type": "STATIC", "schedule_name": "random_11", "is_biased_choice":false,"side_choice": "LEFT", "trial_number":15,"observed_reward":0,"unobserved_reward":0},{"RT":2040,"time": "2018-08-15 01:43:48pm", "schedule_type": "STATIC", "schedule_name": "random_11", "is_biased_choice":true,"side_choice": "RIGHT", "trial_number":16,"observed_reward":0,"unobserved_reward":0},{"RT":2104,"time": "2018-08-15 01:43:50pm", "schedule_type": "STATIC", "schedule_name": "random_11", "is_biased_choice":false,"side_choice": "LEFT", "trial_number":17,"observed_reward":0,"unobserved_reward":1},{"RT":2128,"time": "2018-08-15 01:43:52pm", "schedule_type": "STATIC", "schedule_name": "random_11", "is_biased_choice":true,"side_choice": "RIGHT", "trial_number":18,"observed_reward":0,"unobserved_reward":1},{"RT":2056,"time": "2018-08-15 01:43:54pm", "schedule_type": "STATIC", "schedule_name": "random_11", "is_biased_choice":false,"side_choice": "LEFT", "trial_number":19,"observed_reward":0,"unobserved_reward":0},{"RT":2056,"time": "2018-08-15 01:43:56pm", "schedule_type": "STATIC", "schedule_name": "random_11", "is_biased_choice":true,"side_choice": "RIGHT", "trial_number":20,"observed_reward":0,"unobserved_reward":0},{"RT":2136,"time": "2018-08-15 01:43:58pm", "schedule_type": "STATIC", "schedule_name": "random_11", "is_biased_choice":true,"side_choice": "RIGHT", "trial_number":21,"observed_reward":0,"unobserved_reward":0},{"RT":2072,"time": "2018-08-15 01:44:00pm", "schedule_type": "STATIC", "schedule_name": "random_11", "is_biased_choice":false,"side_choice": "LEFT", "trial_number":22,"observed_reward":1,"unobserved_reward":0},{"RT":2112,"time": "2018-08-15 01:44:02pm", "schedule_type": "STATIC", "schedule_name": "random_11", "is_biased_choice":false,"side_choice": "LEFT", "trial_number":23,"observed_reward":0,"unobserved_reward":0},{"RT":2250,"time": "2018-08-15 01:44:05pm", "schedule_type": "STATIC", "schedule_name": "random_11", "is_biased_choice":true,"side_choice": "RIGHT", "trial_number":24,"observed_reward":0,"unobserved_reward":0},{"RT":2064,"time": "2018-08-15 01:44:07pm", "schedule_type": "STATIC", "schedule_name": "random_11", "is_biased_choice":false,"side_choice": "LEFT", "trial_number":25,"observed_reward":0,"unobserved_reward":0},{"RT":2048,"time": "2018-08-15 01:44:09pm", "schedule_type": "STATIC", "schedule_name": "random_11", "is_biased_choice":true,"side_choice": "RIGHT", "trial_number":26,"observed_reward":0,"unobserved_reward":0},{"RT":2152,"time": "2018-08-15 01:44:11pm", "schedule_type": "STATIC", "schedule_name": "random_11", "is_biased_choice":true,"side_choice": "RIGHT", "trial_number":27,"observed_reward":1,"unobserved_reward":0},{"RT":2136,"time": "2018-08-15 01:44:13pm", "schedule_type": "STATIC", "schedule_name": "random_11", "is_biased_choice":true,"side_choice": "RIGHT", "trial_number":28,"observed_reward":0,"unobserved_reward":0},{"RT":2096,"time": "2018-08-15 01:44:15pm", "schedule_type": "STATIC", "schedule_name": "random_11", "is_biased_choice":false,"side_choice": "LEFT", "trial_number":29,"observed_reward":0,"unobserved_reward":0},{"RT":2040,"time": "2018-08-15 01:44:17pm", "schedule_type": "STATIC", "schedule_name": "random_11", "is_biased_choice":false,"side_choice": "LEFT", "trial_number":30,"observed_reward":1,"unobserved_reward":1},{"RT":2016,"time": "2018-08-15 01:44:19pm", "schedule_type": "STATIC", "schedule_name": "random_11", "is_biased_choice":true,"side_choice": "RIGHT", "trial_number":31,"observed_reward":0,"unobserved_reward":1},{"RT":1872,"time": "2018-08-15 01:44:21pm", "schedule_type": "STATIC", "schedule_name": "random_11", "is_biased_choice":false,"side_choice": "LEFT", "trial_number":32,"observed_reward":0,"unobserved_reward":0},{"RT":2656,"time": "2018-08-15 01:44:25pm", "schedule_type": "STATIC", "schedule_name": "random_11", "is_biased_choice":false,"side_choice": "LEFT", "trial_number":33,"observed_reward":1,"unobserved_reward":0},{"RT":2472,"time": "2018-08-15 01:44:26pm", "schedule_type": "STATIC", "schedule_name": "random_11", "is_biased_choice":true,"side_choice": "RIGHT", "trial_number":34,"observed_reward":0,"unobserved_reward":0},{"RT":2128,"time": "2018-08-15 01:44:28pm", "schedule_type": "STATIC", "schedule_name": "random_11", "is_biased_choice":false,"side_choice": "LEFT", "trial_number":35,"observed_reward":0,"unobserved_reward":0},{"RT":2040,"time": "2018-08-15 01:44:30pm", "schedule_type": "STATIC", "schedule_name": "random_11", "is_biased_choice":true,"side_choice": "RIGHT", "trial_number":36,"observed_reward":1,"unobserved_reward":0},{"RT":2168,"time": "2018-08-15 01:44:33pm", "schedule_type": "STATIC", "schedule_name": "random_11", "is_biased_choice":true,"side_choice": "RIGHT", "trial_number":37,"observed_reward":1,"unobserved_reward":0},{"RT":2064,"time": "2018-08-15 01:44:35pm", "schedule_type": "STATIC", "schedule_name": "random_11", "is_biased_choice":true,"side_choice": "RIGHT", "trial_number":38,"observed_reward":1,"unobserved_reward":1},{"RT":2064,"time": "2018-08-15 01:44:37pm", "schedule_type": "STATIC", "schedule_name": "random_11", "is_biased_choice":true,"side_choice": "RIGHT", "trial_number":39,"observed_reward":0,"unobserved_reward":1},{"RT":2048,"time": "2018-08-15 01:44:39pm", "schedule_type": "STATIC", "schedule_name": "random_11", "is_biased_choice":false,"side_choice": "LEFT", "trial_number":40,"observed_reward":0,"unobserved_reward":0},{"RT":1944,"time": "2018-08-15 01:44:41pm", "schedule_type": "STATIC", "schedule_name": "random_11", "is_biased_choice":false,"side_choice": "LEFT", "trial_number":41,"observed_reward":0,"unobserved_reward":0},{"RT":2152,"time": "2018-08-15 01:44:43pm", "schedule_type": "STATIC", "schedule_name": "random_11", "is_biased_choice":false,"side_choice": "LEFT", "trial_number":42,"observed_reward":0,"unobserved_reward":0},{"RT":2320,"time": "2018-08-15 01:44:45pm", "schedule_type": "STATIC", "schedule_name": "random_11", "is_biased_choice":true,"side_choice": "RIGHT", "trial_number":43,"observed_reward":1,"unobserved_reward":0},{"RT":2144,"time": "2018-08-15 01:44:47pm", "schedule_type": "STATIC", "schedule_name": "random_11", "is_biased_choice":true,"side_choice": "RIGHT", "trial_number":44,"observed_reward":0,"unobserved_reward":0},{"RT":2528,"time": "2018-08-15 01:44:50pm", "schedule_type": "STATIC", "schedule_name": "random_11", "is_biased_choice":false,"side_choice": "LEFT", "trial_number":45,"observed_reward":1,"unobserved_reward":0},{"RT":2160,"time": "2018-08-15 01:44:52pm", "schedule_type": "STATIC", "schedule_name": "random_11", "is_biased_choice":false,"side_choice": "LEFT", "trial_number":46,"observed_reward":0,"unobserved_reward":0},{"RT":2024,"time": "2018-08-15 01:44:54pm", "schedule_type": "STATIC", "schedule_name": "random_11", "is_biased_choice":true,"side_choice": "RIGHT", "trial_number":47,"observed_reward":0,"unobserved_reward":0},{"RT":2407,"time": "2018-08-15 01:44:56pm", "schedule_type": "STATIC", "schedule_name": "random_11", "is_biased_choice":false,"side_choice": "LEFT", "trial_number":48,"observed_reward":0,"unobserved_reward":1},{"RT":2153,"time": "2018-08-15 01:44:58pm", "schedule_type": "STATIC", "schedule_name": "random_11", "is_biased_choice":true,"side_choice": "RIGHT", "trial_number":49,"observed_reward":0,"unobserved_reward":1},{"RT":2128,"time": "2018-08-15 01:45:01pm", "schedule_type": "STATIC", "schedule_name": "random_11", "is_biased_choice":false,"side_choice": "LEFT", "trial_number":50,"observed_reward":0,"unobserved_reward":1},{"RT":2184,"time": "2018-08-15 01:45:03pm", "schedule_type": "STATIC", "schedule_name": "random_11", "is_biased_choice":false,"side_choice": "LEFT", "trial_number":51,"observed_reward":1,"unobserved_reward":0},{"RT":2136,"time": "2018-08-15 01:45:05pm", "schedule_type": "STATIC", "schedule_name": "random_11", "is_biased_choice":false,"side_choice": "LEFT", "trial_number":52,"observed_reward":1,"unobserved_reward":0},{"RT":2128,"time": "2018-08-15 01:45:07pm", "schedule_type": "STATIC", "schedule_name": "random_11", "is_biased_choice":false,"side_choice": "LEFT", "trial_number":53,"observed_reward":0,"unobserved_reward":0},{"RT":1992,"time": "2018-08-15 01:45:09pm", "schedule_type": "STATIC", "schedule_name": "random_11", "is_biased_choice":true,"side_choice": "RIGHT", "trial_number":54,"observed_reward":0,"unobserved_reward":0},{"RT":1944,"time": "2018-08-15 01:45:11pm", "schedule_type": "STATIC", "schedule_name": "random_11", "is_biased_choice":true,"side_choice": "RIGHT", "trial_number":55,"observed_reward":1,"unobserved_reward":0},{"RT":2064,"time": "2018-08-15 01:45:13pm", "schedule_type": "STATIC", "schedule_name": "random_11", "is_biased_choice":true,"side_choice": "RIGHT", "trial_number":56,"observed_reward":0,"unobserved_reward":1},{"RT":2048,"time": "2018-08-15 01:45:15pm", "schedule_type": "STATIC", "schedule_name": "random_11", "is_biased_choice":false,"side_choice": "LEFT", "trial_number":57,"observed_reward":1,"unobserved_reward":0},{"RT":2080,"time": "2018-08-15 01:45:17pm", "schedule_type": "STATIC", "schedule_name": "random_11", "is_biased_choice":false,"side_choice": "LEFT", "trial_number":58,"observed_reward":0,"unobserved_reward":1},{"RT":2008,"time": "2018-08-15 01:45:19pm", "schedule_type": "STATIC", "schedule_name": "random_11", "is_biased_choice":false,"side_choice": "LEFT", "trial_number":59,"observed_reward":0,"unobserved_reward":1},{"RT":1976,"time": "2018-08-15 01:45:21pm", "schedule_type": "STATIC", "schedule_name": "random_11", "is_biased_choice":true,"side_choice": "RIGHT", "trial_number":60,"observed_reward":0,"unobserved_reward":0},{"RT":2064,"time": "2018-08-15 01:45:25pm", "schedule_type": "STATIC", "schedule_name": "random_11", "is_biased_choice":true,"side_choice": "RIGHT", "trial_number":61,"observed_reward":0,"unobserved_reward":0},{"RT":3263,"time": "2018-08-15 01:45:27pm", "schedule_type": "STATIC", "schedule_name": "random_11", "is_biased_choice":false,"side_choice": "LEFT", "trial_number":62,"observed_reward":1,"unobserved_reward":0},{"RT":2417,"time": "2018-08-15 01:45:29pm", "schedule_type": "STATIC", "schedule_name": "random_11", "is_biased_choice":true,"side_choice": "RIGHT", "trial_number":63,"observed_reward":0,"unobserved_reward":0},{"RT":2448,"time": "2018-08-15 01:45:31pm", "schedule_type": "STATIC", "schedule_name": "random_11", "is_biased_choice":false,"side_choice": "LEFT", "trial_number":64,"observed_reward":1,"unobserved_reward":0},{"RT":2168,"time": "2018-08-15 01:45:34pm", "schedule_type": "STATIC", "schedule_name": "random_11", "is_biased_choice":true,"side_choice": "RIGHT", "trial_number":65,"observed_reward":0,"unobserved_reward":1},{"RT":2040,"time": "2018-08-15 01:45:36pm", "schedule_type": "STATIC", "schedule_name": "random_11", "is_biased_choice":false,"side_choice": "LEFT", "trial_number":66,"observed_reward":1,"unobserved_reward":1},{"RT":2688,"time": "2018-08-15 01:45:38pm", "schedule_type": "STATIC", "schedule_name": "random_11", "is_biased_choice":false,"side_choice": "LEFT", "trial_number":67,"observed_reward":1,"unobserved_reward":0},{"RT":2168,"time": "2018-08-15 01:45:40pm", "schedule_type": "STATIC", "schedule_name": "random_11", "is_biased_choice":false,"side_choice": "LEFT", "trial_number":68,"observed_reward":0,"unobserved_reward":0},{"RT":2104,"time": "2018-08-15 01:45:43pm", "schedule_type": "STATIC", "schedule_name": "random_11", "is_biased_choice":true,"side_choice": "RIGHT", "trial_number":69,"observed_reward":1,"unobserved_reward":0},{"RT":2120,"time": "2018-08-15 01:45:45pm", "schedule_type": "STATIC", "schedule_name": "random_11", "is_biased_choice":true,"side_choice": "RIGHT", "trial_number":70,"observed_reward":0,"unobserved_reward":0},{"RT":2112,"time": "2018-08-15 01:45:47pm", "schedule_type": "STATIC", "schedule_name": "random_11", "is_biased_choice":false,"side_choice": "LEFT", "trial_number":71,"observed_reward":0,"unobserved_reward":0},{"RT":2000,"time": "2018-08-15 01:45:49pm", "schedule_type": "STATIC", "schedule_name": "random_11", "is_biased_choice":true,"side_choice": "RIGHT", "trial_number":72,"observed_reward":0,"unobserved_reward":0},{"RT":2056,"time": "2018-08-15 01:45:51pm", "schedule_type": "STATIC", "schedule_name": "random_11", "is_biased_choice":false,"side_choice": "LEFT", "trial_number":73,"observed_reward":0,"unobserved_reward":0},{"RT":2016,"time": "2018-08-15 01:45:53pm", "schedule_type": "STATIC", "schedule_name": "random_11", "is_biased_choice":false,"side_choice": "LEFT", "trial_number":74,"observed_reward":0,"unobserved_reward":0},{"RT":2016,"time": "2018-08-15 01:45:55pm", "schedule_type": "STATIC", "schedule_name": "random_11", "is_biased_choice":true,"side_choice": "RIGHT", "trial_number":75,"observed_reward":0,"unobserved_reward":1},{"RT":2024,"time": "2018-08-15 01:45:57pm", "schedule_type": "STATIC", "schedule_name": "random_11", "is_biased_choice":false,"side_choice": "LEFT", "trial_number":76,"observed_reward":0,"unobserved_reward":0},{"RT":2560,"time": "2018-08-15 01:45:59pm", "schedule_type": "STATIC", "schedule_name": "random_11", "is_biased_choice":true,"side_choice": "RIGHT", "trial_number":77,"observed_reward":0,"unobserved_reward":0},{"RT":2087,"time": "2018-08-15 01:46:02pm", "schedule_type": "STATIC", "schedule_name": "random_11", "is_biased_choice":true,"side_choice": "RIGHT", "trial_number":78,"observed_reward":0,"unobserved_reward":0},{"RT":2104,"time": "2018-08-15 01:46:04pm", "schedule_type": "STATIC", "schedule_name": "random_11", "is_biased_choice":true,"side_choice": "RIGHT", "trial_number":79,"observed_reward":0,"unobserved_reward":0},{"RT":2078,"time": "2018-08-15 01:46:06pm", "schedule_type": "STATIC", "schedule_name": "random_11", "is_biased_choice":false,"side_choice": "LEFT", "trial_number":80,"observed_reward":0,"unobserved_reward":1},{"RT":1961,"time": "2018-08-15 01:46:08pm", "schedule_type": "STATIC", "schedule_name": "random_11", "is_biased_choice":false,"side_choice": "LEFT", "trial_number":81,"observed_reward":0,"unobserved_reward":0},{"RT":2056,"time": "2018-08-15 01:46:10pm", "schedule_type": "STATIC", "schedule_name": "random_11", "is_biased_choice":false,"side_choice": "LEFT", "trial_number":82,"observed_reward":0,"unobserved_reward":1},{"RT":2071,"time": "2018-08-15 01:46:12pm", "schedule_type": "STATIC", "schedule_name": "random_11", "is_biased_choice":true,"side_choice": "RIGHT", "trial_number":83,"observed_reward":0,"unobserved_reward":0},{"RT":2297,"time": "2018-08-15 01:46:14pm", "schedule_type": "STATIC", "schedule_name": "random_11", "is_biased_choice":false,"side_choice": "LEFT", "trial_number":84,"observed_reward":0,"unobserved_reward":1},{"RT":2008,"time": "2018-08-15 01:46:16pm", "schedule_type": "STATIC", "schedule_name": "random_11", "is_biased_choice":true,"side_choice": "RIGHT", "trial_number":85,"observed_reward":0,"unobserved_reward":0},{"RT":2119,"time": "2018-08-15 01:46:18pm", "schedule_type": "STATIC", "schedule_name": "random_11", "is_biased_choice":false,"side_choice": "LEFT", "trial_number":86,"observed_reward":0,"unobserved_reward":1},{"RT":2040,"time": "2018-08-15 01:46:20pm", "schedule_type": "STATIC", "schedule_name": "random_11", "is_biased_choice":false,"side_choice": "LEFT", "trial_number":87,"observed_reward":0,"unobserved_reward":0},{"RT":2033,"time": "2018-08-15 01:46:22pm", "schedule_type": "STATIC", "schedule_name": "random_11", "is_biased_choice":false,"side_choice": "LEFT", "trial_number":88,"observed_reward":0,"unobserved_reward":0},{"RT":2128,"time": "2018-08-15 01:46:26pm", "schedule_type": "STATIC", "schedule_name": "random_11", "is_biased_choice":false,"side_choice": "LEFT", "trial_number":89,"observed_reward":0,"unobserved_reward":1},{"RT":2304,"time": "2018-08-15 01:46:27pm", "schedule_type": "STATIC", "schedule_name": "random_11", "is_biased_choice":false,"side_choice": "LEFT", "trial_number":90,"observed_reward":1,"unobserved_reward":0},{"RT":2263,"time": "2018-08-15 01:46:29pm", "schedule_type": "STATIC", "schedule_name": "random_11", "is_biased_choice":false,"side_choice": "LEFT", "trial_number":91,"observed_reward":0,"unobserved_reward":0},{"RT":2336,"time": "2018-08-15 01:46:31pm", "schedule_type": "STATIC", "schedule_name": "random_11", "is_biased_choice":false,"side_choice": "LEFT", "trial_number":92,"observed_reward":0,"unobserved_reward":0},{"RT":2104,"time": "2018-08-15 01:46:33pm", "schedule_type": "STATIC", "schedule_name": "random_11", "is_biased_choice":false,"side_choice": "LEFT", "trial_number":93,"observed_reward":0,"unobserved_reward":0},{"RT":2120,"time": "2018-08-15 01:46:36pm", "schedule_type": "STATIC", "schedule_name": "random_11", "is_biased_choice":false,"side_choice": "LEFT", "trial_number":94,"observed_reward":0,"unobserved_reward":0},{"RT":2097,"time": "2018-08-15 01:46:38pm", "schedule_type": "STATIC", "schedule_name": "random_11", "is_biased_choice":false,"side_choice": "LEFT", "trial_number":95,"observed_reward":1,"unobserved_reward":1},{"RT":2167,"time": "2018-08-15 01:46:40pm", "schedule_type": "STATIC", "schedule_name": "random_11", "is_biased_choice":false,"side_choice": "LEFT", "trial_number":96,"observed_reward":0,"unobserved_reward":0},{"RT":2137,"time": "2018-08-15 01:46:42pm", "schedule_type": "STATIC", "schedule_name": "random_11", "is_biased_choice":false,"side_choice": "LEFT", "trial_number":97,"observed_reward":0,"unobserved_reward":0},{"RT":2119,"time": "2018-08-15 01:46:44pm", "schedule_type": "STATIC", "schedule_name": "random_11", "is_biased_choice":false,"side_choice": "LEFT", "trial_number":98,"observed_reward":1,"unobserved_reward":0},{"RT":2184,"time": "2018-08-15 01:46:46pm", "schedule_type": "STATIC", "schedule_name": "random_11", "is_biased_choice":false,"side_choice": "LEFT", "trial_number":99,"observed_reward":0,"unobserved_reward":0},