[{"RT":20444,"time": "2018-08-15 03:27:22pm", "schedule_type": "STATIC", "schedule_name": "random_11", "is_biased_choice":true,"side_choice": "LEFT", "trial_number":0,"observed_reward":0,"unobserved_reward":0},{"RT":5641,"time": "2018-08-15 03:27:28pm", "schedule_type": "STATIC", "schedule_name": "random_11", "is_biased_choice":false,"side_choice": "RIGHT", "trial_number":1,"observed_reward":0,"unobserved_reward":1},{"RT":6271,"time": "2018-08-15 03:27:34pm", "schedule_type": "STATIC", "schedule_name": "random_11", "is_biased_choice":false,"side_choice": "RIGHT", "trial_number":2,"observed_reward":0,"unobserved_reward":0},{"RT":3136,"time": "2018-08-15 03:27:37pm", "schedule_type": "STATIC", "schedule_name": "random_11", "is_biased_choice":true,"side_choice": "LEFT", "trial_number":3,"observed_reward":0,"unobserved_reward":0},{"RT":3656,"time": "2018-08-15 03:27:41pm", "schedule_type": "STATIC", "schedule_name": "random_11", "is_biased_choice":false,"side_choice": "RIGHT", "trial_number":4,"observed_reward":0,"unobserved_reward":0},{"RT":3754,"time": "2018-08-15 03:27:45pm", "schedule_type": "STATIC", "schedule_name": "random_11", "is_biased_choice":false,"side_choice": "RIGHT", "trial_number":5,"observed_reward":1,"unobserved_reward":1},{"RT":3630,"time": "2018-08-15 03:27:48pm", "schedule_type": "STATIC", "schedule_name": "random_11", "is_biased_choice":false,"side_choice": "RIGHT", "trial_number":6,"observed_reward":0,"unobserved_reward":1},{"RT":4049,"time": "2018-08-15 03:27:52pm", "schedule_type": "STATIC", "schedule_name": "random_11", "is_biased_choice":false,"side_choice": "RIGHT", "trial_number":7,"observed_reward":1,"unobserved_reward":1},{"RT":8217,"time": "2018-08-15 03:28:02pm", "schedule_type": "STATIC", "schedule_name": "random_11", "is_biased_choice":true,"side_choice": "LEFT", "trial_number":8,"observed_reward":0,"unobserved_reward":1},{"RT":4982,"time": "2018-08-15 03:28:05pm", "schedule_type": "STATIC", "schedule_name": "random_11", "is_biased_choice":false,"side_choice": "RIGHT", "trial_number":9,"observed_reward":0,"unobserved_reward":0},{"RT":10440,"time": "2018-08-15 03:28:16pm", "schedule_type": "STATIC", "schedule_name": "random_11", "is_biased_choice":false,"side_choice": "RIGHT", "trial_number":10,"observed_reward":0,"unobserved_reward":0},{"RT":3769,"time": "2018-08-15 03:28:20pm", "schedule_type": "STATIC", "schedule_name": "random_11", "is_biased_choice":false,"side_choice": "RIGHT", "trial_number":11,"observed_reward":0,"unobserved_reward":0},{"RT":9559,"time": "2018-08-15 03:28:29pm", "schedule_type": "STATIC", "schedule_name": "random_11", "is_biased_choice":false,"side_choice": "RIGHT", "trial_number":12,"observed_reward":0,"unobserved_reward":0},{"RT":4168,"time": "2018-08-15 03:28:33pm", "schedule_type": "STATIC", "schedule_name": "random_11", "is_biased_choice":false,"side_choice": "RIGHT", "trial_number":13,"observed_reward":0,"unobserved_reward":0},{"RT":6768,"time": "2018-08-15 03:28:40pm", "schedule_type": "STATIC", "schedule_name": "random_11", "is_biased_choice":false,"side_choice": "RIGHT", "trial_number":14,"observed_reward":0,"unobserved_reward":1},{"RT":8232,"time": "2018-08-15 03:28:48pm", "schedule_type": "STATIC", "schedule_name": "random_11", "is_biased_choice":false,"side_choice": "RIGHT", "trial_number":15,"observed_reward":0,"unobserved_reward":0},{"RT":4810,"time": "2018-08-15 03:28:53pm", "schedule_type": "STATIC", "schedule_name": "random_11", "is_biased_choice":false,"side_choice": "RIGHT", "trial_number":16,"observed_reward":0,"unobserved_reward":0},{"RT":4487,"time": "2018-08-15 03:28:58pm", "schedule_type": "STATIC", "schedule_name": "random_11", "is_biased_choice":false,"side_choice": "RIGHT", "trial_number":17,"observed_reward":0,"unobserved_reward":1},{"RT":4240,"time": "2018-08-15 03:29:02pm", "schedule_type": "STATIC", "schedule_name": "random_11", "is_biased_choice":false,"side_choice": "RIGHT", "trial_number":18,"observed_reward":1,"unobserved_reward":0},{"RT":3776,"time": "2018-08-15 03:29:06pm", "schedule_type": "STATIC", "schedule_name": "random_11", "is_biased_choice":false,"side_choice": "RIGHT", "trial_number":19,"observed_reward":0,"unobserved_reward":0},{"RT":5641,"time": "2018-08-15 03:29:13pm", "schedule_type": "STATIC", "schedule_name": "random_11", "is_biased_choice":false,"side_choice": "RIGHT", "trial_number":20,"observed_reward":0,"unobserved_reward":0},{"RT":4823,"time": "2018-08-15 03:29:16pm", "schedule_type": "STATIC", "schedule_name": "random_11", "is_biased_choice":false,"side_choice": "RIGHT", "trial_number":21,"observed_reward":0,"unobserved_reward":0},{"RT":45688,"time": "2018-08-15 03:30:02pm", "schedule_type": "STATIC", "schedule_name": "random_11", "is_biased_choice":false,"side_choice": "RIGHT", "trial_number":22,"observed_reward":1,"unobserved_reward":0},{"RT":3761,"time": "2018-08-15 03:30:06pm", "schedule_type": "STATIC", "schedule_name": "random_11", "is_biased_choice":false,"side_choice": "RIGHT", "trial_number":23,"observed_reward":0,"unobserved_reward":0},{"RT":4466,"time": "2018-08-15 03:30:10pm", "schedule_type": "STATIC", "schedule_name": "random_11", "is_biased_choice":false,"side_choice": "RIGHT", "trial_number":24,"observed_reward":0,"unobserved_reward":0},{"RT":82477,"time": "2018-08-15 03:31:33pm", "schedule_type": "STATIC", "schedule_name": "random_11", "is_biased_choice":false,"side_choice": "RIGHT", "trial_number":25,"observed_reward":0,"unobserved_reward":0},{"RT":3511,"time": "2018-08-15 03:31:36pm", "schedule_type": "STATIC", "schedule_name": "random_11", "is_biased_choice":false,"side_choice": "RIGHT", "trial_number":26,"observed_reward":0,"unobserved_reward":0},{"RT":2992,"time": "2018-08-15 03:31:39pm", "schedule_type": "STATIC", "schedule_name": "random_11", "is_biased_choice":false,"side_choice": "RIGHT", "trial_number":27,"observed_reward":0,"unobserved_reward":1},{"RT":3320,"time": "2018-08-15 03:31:42pm", "schedule_type": "STATIC", "schedule_name": "random_11", "is_biased_choice":false,"side_choice": "RIGHT", "trial_number":28,"observed_reward":0,"unobserved_reward":0},{"RT":3096,"time": "2018-08-15 03:31:46pm", "schedule_type": "STATIC", "schedule_name": "random_11", "is_biased_choice":false,"side_choice": "RIGHT", "trial_number":29,"observed_reward":0,"unobserved_reward":0},{"RT":3450,"time": "2018-08-15 03:31:49pm", "schedule_type": "STATIC", "schedule_name": "random_11", "is_biased_choice":false,"side_choice": "RIGHT", "trial_number":30,"observed_reward":1,"unobserved_reward":1},{"RT":3721,"time": "2018-08-15 03:31:52pm", "schedule_type": "STATIC", "schedule_name": "random_11", "is_biased_choice":false,"side_choice": "RIGHT", "trial_number":31,"observed_reward":1,"unobserved_reward":0},{"RT":5157,"time": "2018-08-15 03:31:58pm", "schedule_type": "STATIC", "schedule_name": "random_11", "is_biased_choice":false,"side_choice": "RIGHT", "trial_number":32,"observed_reward":0,"unobserved_reward":0},{"RT":329569,"time": "2018-08-15 03:37:28pm", "schedule_type": "STATIC", "schedule_name": "random_11", "is_biased_choice":false,"side_choice": "RIGHT", "trial_number":33,"observed_reward":1,"unobserved_reward":0},{"RT":3511,"time": "2018-08-15 03:37:31pm", "schedule_type": "STATIC", "schedule_name": "random_11", "is_biased_choice":false,"side_choice": "RIGHT", "trial_number":34,"observed_reward":0,"unobserved_reward":0},{"RT":3249,"time": "2018-08-15 03:37:34pm", "schedule_type": "STATIC", "schedule_name": "random_11", "is_biased_choice":false,"side_choice": "RIGHT", "trial_number":35,"observed_reward":0,"unobserved_reward":0},{"RT":2872,"time": "2018-08-15 03:37:37pm", "schedule_type": "STATIC", "schedule_name": "random_11", "is_biased_choice":false,"side_choice": "RIGHT", "trial_number":36,"observed_reward":0,"unobserved_reward":1},{"RT":2760,"time": "2018-08-15 03:37:40pm", "schedule_type": "STATIC", "schedule_name": "random_11", "is_biased_choice":false,"side_choice": "RIGHT", "trial_number":37,"observed_reward":0,"unobserved_reward":1},{"RT":2999,"time": "2018-08-15 03:37:43pm", "schedule_type": "STATIC", "schedule_name": "random_11", "is_biased_choice":false,"side_choice": "RIGHT", "trial_number":38,"observed_reward":1,"unobserved_reward":1},{"RT":3617,"time": "2018-08-15 03:37:46pm", "schedule_type": "STATIC", "schedule_name": "random_11", "is_biased_choice":false,"side_choice": "RIGHT", "trial_number":39,"observed_reward":1,"unobserved_reward":0},{"RT":2975,"time": "2018-08-15 03:37:49pm", "schedule_type": "STATIC", "schedule_name": "random_11", "is_biased_choice":false,"side_choice": "RIGHT", "trial_number":40,"observed_reward":0,"unobserved_reward":0},{"RT":3305,"time": "2018-08-15 03:37:53pm", "schedule_type": "STATIC", "schedule_name": "random_11", "is_biased_choice":false,"side_choice": "RIGHT", "trial_number":41,"observed_reward":0,"unobserved_reward":0},{"RT":3256,"time": "2018-08-15 03:37:56pm", "schedule_type": "STATIC", "schedule_name": "random_11", "is_biased_choice":false,"side_choice": "RIGHT", "trial_number":42,"observed_reward":0,"unobserved_reward":0},{"RT":3425,"time": "2018-08-15 03:37:59pm", "schedule_type": "STATIC", "schedule_name": "random_11", "is_biased_choice":false,"side_choice": "RIGHT", "trial_number":43,"observed_reward":0,"unobserved_reward":1},{"RT":2702,"time": "2018-08-15 03:38:02pm", "schedule_type": "STATIC", "schedule_name": "random_11", "is_biased_choice":false,"side_choice": "RIGHT", "trial_number":44,"observed_reward":0,"unobserved_reward":0},{"RT":2889,"time": "2018-08-15 03:38:05pm", "schedule_type": "STATIC", "schedule_name": "random_11", "is_biased_choice":false,"side_choice": "RIGHT", "trial_number":45,"observed_reward":1,"unobserved_reward":0},{"RT":3056,"time": "2018-08-15 03:38:08pm", "schedule_type": "STATIC", "schedule_name": "random_11", "is_biased_choice":false,"side_choice": "RIGHT", "trial_number":46,"observed_reward":0,"unobserved_reward":0},{"RT":2591,"time": "2018-08-15 03:38:10pm", "schedule_type": "STATIC", "schedule_name": "random_11", "is_biased_choice":false,"side_choice": "RIGHT", "trial_number":47,"observed_reward":0,"unobserved_reward":0},{"RT":3018,"time": "2018-08-15 03:38:13pm", "schedule_type": "STATIC", "schedule_name": "random_11", "is_biased_choice":false,"side_choice": "RIGHT", "trial_number":48,"observed_reward":0,"unobserved_reward":1},{"RT":4511,"time": "2018-08-15 03:38:18pm", "schedule_type": "STATIC", "schedule_name": "random_11", "is_biased_choice":false,"side_choice": "RIGHT", "trial_number":49,"observed_reward":1,"unobserved_reward":0},{"RT":2785,"time": "2018-08-15 03:38:21pm", "schedule_type": "STATIC", "schedule_name": "random_11", "is_biased_choice":false,"side_choice": "RIGHT", "trial_number":50,"observed_reward":0,"unobserved_reward":1},{"RT":2838,"time": "2018-08-15 03:38:24pm", "schedule_type": "STATIC", "schedule_name": "random_11", "is_biased_choice":false,"side_choice": "RIGHT", "trial_number":51,"observed_reward":1,"unobserved_reward":0},{"RT":2569,"time": "2018-08-15 03:38:26pm", "schedule_type": "STATIC", "schedule_name": "random_11", "is_biased_choice":false,"side_choice": "RIGHT", "trial_number":52,"observed_reward":1,"unobserved_reward":0},{"RT":2600,"time": "2018-08-15 03:38:29pm", "schedule_type": "STATIC", "schedule_name": "random_11", "is_biased_choice":false,"side_choice": "RIGHT", "trial_number":53,"observed_reward":0,"unobserved_reward":0},{"RT":3760,"time": "2018-08-15 03:38:33pm", "schedule_type": "STATIC", "schedule_name": "random_11", "is_biased_choice":false,"side_choice": "RIGHT", "trial_number":54,"observed_reward":0,"unobserved_reward":0},{"RT":2992,"time": "2018-08-15 03:38:36pm", "schedule_type": "STATIC", "schedule_name": "random_11", "is_biased_choice":false,"side_choice": "RIGHT", "trial_number":55,"observed_reward":0,"unobserved_reward":1},{"RT":2592,"time": "2018-08-15 03:38:38pm", "schedule_type": "STATIC", "schedule_name": "random_11", "is_biased_choice":false,"side_choice": "RIGHT", "trial_number":56,"observed_reward":1,"unobserved_reward":0},{"RT":2696,"time": "2018-08-15 03:38:41pm", "schedule_type": "STATIC", "schedule_name": "random_11", "is_biased_choice":false,"side_choice": "RIGHT", "trial_number":57,"observed_reward":1,"unobserved_reward":0},{"RT":92688,"time": "2018-08-15 03:40:14pm", "schedule_type": "STATIC", "schedule_name": "random_11", "is_biased_choice":false,"side_choice": "RIGHT", "trial_number":58,"observed_reward":0,"unobserved_reward":1},{"RT":3865,"time": "2018-08-15 03:40:18pm", "schedule_type": "STATIC", "schedule_name": "random_11", "is_biased_choice":false,"side_choice": "RIGHT", "trial_number":59,"observed_reward":0,"unobserved_reward":1},{"RT":2623,"time": "2018-08-15 03:40:20pm", "schedule_type": "STATIC", "schedule_name": "random_11", "is_biased_choice":false,"side_choice": "RIGHT", "trial_number":60,"observed_reward":0,"unobserved_reward":0},{"RT":2976,"time": "2018-08-15 03:40:23pm", "schedule_type": "STATIC", "schedule_name": "random_11", "is_biased_choice":false,"side_choice": "RIGHT", "trial_number":61,"observed_reward":0,"unobserved_reward":0},{"RT":3584,"time": "2018-08-15 03:40:27pm", "schedule_type": "STATIC", "schedule_name": "random_11", "is_biased_choice":false,"side_choice": "RIGHT", "trial_number":62,"observed_reward":1,"unobserved_reward":0},{"RT":2576,"time": "2018-08-15 03:40:29pm", "schedule_type": "STATIC", "schedule_name": "random_11", "is_biased_choice":false,"side_choice": "RIGHT", "trial_number":63,"observed_reward":0,"unobserved_reward":0},{"RT":2841,"time": "2018-08-15 03:40:32pm", "schedule_type": "STATIC", "schedule_name": "random_11", "is_biased_choice":false,"side_choice": "RIGHT", "trial_number":64,"observed_reward":1,"unobserved_reward":0},{"RT":2872,"time": "2018-08-15 03:40:35pm", "schedule_type": "STATIC", "schedule_name": "random_11", "is_biased_choice":false,"side_choice": "RIGHT", "trial_number":65,"observed_reward":1,"unobserved_reward":0},{"RT":3023,"time": "2018-08-15 03:40:38pm", "schedule_type": "STATIC", "schedule_name": "random_11", "is_biased_choice":false,"side_choice": "RIGHT", "trial_number":66,"observed_reward":1,"unobserved_reward":1},{"RT":10824,"time": "2018-08-15 03:40:49pm", "schedule_type": "STATIC", "schedule_name": "random_11", "is_biased_choice":false,"side_choice": "RIGHT", "trial_number":67,"observed_reward":1,"unobserved_reward":0},{"RT":2857,"time": "2018-08-15 03:40:51pm", "schedule_type": "STATIC", "schedule_name": "random_11", "is_biased_choice":false,"side_choice": "RIGHT", "trial_number":68,"observed_reward":0,"unobserved_reward":0},{"RT":2591,"time": "2018-08-15 03:40:54pm", "schedule_type": "STATIC", "schedule_name": "random_11", "is_biased_choice":false,"side_choice": "RIGHT", "trial_number":69,"observed_reward":0,"unobserved_reward":1},{"RT":2609,"time": "2018-08-15 03:40:57pm", "schedule_type": "STATIC", "schedule_name": "random_11", "is_biased_choice":false,"side_choice": "RIGHT", "trial_number":70,"observed_reward":0,"unobserved_reward":0},{"RT":2639,"time": "2018-08-15 03:40:59pm", "schedule_type": "STATIC", "schedule_name": "random_11", "is_biased_choice":false,"side_choice": "RIGHT", "trial_number":71,"observed_reward":0,"unobserved_reward":0},{"RT":2544,"time": "2018-08-15 03:41:02pm", "schedule_type": "STATIC", "schedule_name": "random_11", "is_biased_choice":false,"side_choice": "RIGHT", "trial_number":72,"observed_reward":0,"unobserved_reward":0},{"RT":2680,"time": "2018-08-15 03:41:05pm", "schedule_type": "STATIC", "schedule_name": "random_11", "is_biased_choice":false,"side_choice": "RIGHT", "trial_number":73,"observed_reward":0,"unobserved_reward":0},{"RT":2569,"time": "2018-08-15 03:41:07pm", "schedule_type": "STATIC", "schedule_name": "random_11", "is_biased_choice":false,"side_choice": "RIGHT", "trial_number":74,"observed_reward":0,"unobserved_reward":0},{"RT":2711,"time": "2018-08-15 03:41:10pm", "schedule_type": "STATIC", "schedule_name": "random_11", "is_biased_choice":false,"side_choice": "RIGHT", "trial_number":75,"observed_reward":1,"unobserved_reward":0},{"RT":2608,"time": "2018-08-15 03:41:12pm", "schedule_type": "STATIC", "schedule_name": "random_11", "is_biased_choice":false,"side_choice": "RIGHT", "trial_number":76,"observed_reward":0,"unobserved_reward":0},{"RT":2423,"time": "2018-08-15 03:41:15pm", "schedule_type": "STATIC", "schedule_name": "random_11", "is_biased_choice":false,"side_choice": "RIGHT", "trial_number":77,"observed_reward":0,"unobserved_reward":0},{"RT":2496,"time": "2018-08-15 03:41:18pm", "schedule_type": "STATIC", "schedule_name": "random_11", "is_biased_choice":false,"side_choice": "RIGHT", "trial_number":78,"observed_reward":0,"unobserved_reward":0},{"RT":2825,"time": "2018-08-15 03:41:20pm", "schedule_type": "STATIC", "schedule_name": "random_11", "is_biased_choice":false,"side_choice": "RIGHT", "trial_number":79,"observed_reward":0,"unobserved_reward":0},{"RT":2575,"time": "2018-08-15 03:41:23pm", "schedule_type": "STATIC", "schedule_name": "random_11", "is_biased_choice":false,"side_choice": "RIGHT", "trial_number":80,"observed_reward":0,"unobserved_reward":1},{"RT":3305,"time": "2018-08-15 03:41:26pm", "schedule_type": "STATIC", "schedule_name": "random_11", "is_biased_choice":false,"side_choice": "RIGHT", "trial_number":81,"observed_reward":0,"unobserved_reward":0},{"RT":3200,"time": "2018-08-15 03:41:29pm", "schedule_type": "STATIC", "schedule_name": "random_11", "is_biased_choice":false,"side_choice": "RIGHT", "trial_number":82,"observed_reward":0,"unobserved_reward":1},{"RT":3831,"time": "2018-08-15 03:41:33pm", "schedule_type": "STATIC", "schedule_name": "random_11", "is_biased_choice":false,"side_choice": "RIGHT", "trial_number":83,"observed_reward":0,"unobserved_reward":0},{"RT":2425,"time": "2018-08-15 03:41:36pm", "schedule_type": "STATIC", "schedule_name": "random_11", "is_biased_choice":false,"side_choice": "RIGHT", "trial_number":84,"observed_reward":0,"unobserved_reward":1},{"RT":2800,"time": "2018-08-15 03:41:38pm", "schedule_type": "STATIC", "schedule_name": "random_11", "is_biased_choice":false,"side_choice": "RIGHT", "trial_number":85,"observed_reward":0,"unobserved_reward":0},{"RT":2583,"time": "2018-08-15 03:41:41pm", "schedule_type": "STATIC", "schedule_name": "random_11", "is_biased_choice":false,"side_choice": "RIGHT", "trial_number":86,"observed_reward":0,"unobserved_reward":1},{"RT":2785,"time": "2018-08-15 03:41:44pm", "schedule_type": "STATIC", "schedule_name": "random_11", "is_biased_choice":false,"side_choice": "RIGHT", "trial_number":87,"observed_reward":0,"unobserved_reward":0},{"RT":3056,"time": "2018-08-15 03:41:47pm", "schedule_type": "STATIC", "schedule_name": "random_11", "is_biased_choice":false,"side_choice": "RIGHT", "trial_number":88,"observed_reward":0,"unobserved_reward":0},{"RT":2503,"time": "2018-08-15 03:41:49pm", "schedule_type": "STATIC", "schedule_name": "random_11", "is_biased_choice":false,"side_choice": "RIGHT", "trial_number":89,"observed_reward":0,"unobserved_reward":1},{"RT":3017,"time": "2018-08-15 03:41:52pm", "schedule_type": "STATIC", "schedule_name": "random_11", "is_biased_choice":false,"side_choice": "RIGHT", "trial_number":90,"observed_reward":1,"unobserved_reward":0},{"RT":2751,"time": "2018-08-15 03:41:55pm", "schedule_type": "STATIC", "schedule_name": "random_11", "is_biased_choice":false,"side_choice": "RIGHT", "trial_number":91,"observed_reward":0,"unobserved_reward":0},{"RT":2592,"time": "2018-08-15 03:41:58pm", "schedule_type": "STATIC", "schedule_name": "random_11", "is_biased_choice":false,"side_choice": "RIGHT", "trial_number":92,"observed_reward":0,"unobserved_reward":0},{"RT":2826,"time": "2018-08-15 03:42:00pm", "schedule_type": "STATIC", "schedule_name": "random_11", "is_biased_choice":false,"side_choice": "RIGHT", "trial_number":93,"observed_reward":0,"unobserved_reward":0},{"RT":2758,"time": "2018-08-15 03:42:03pm", "schedule_type": "STATIC", "schedule_name": "random_11", "is_biased_choice":false,"side_choice": "RIGHT", "trial_number":94,"observed_reward":0,"unobserved_reward":0},{"RT":2873,"time": "2018-08-15 03:42:06pm", "schedule_type": "STATIC", "schedule_name": "random_11", "is_biased_choice":false,"side_choice": "RIGHT", "trial_number":95,"observed_reward":1,"unobserved_reward":1},{"RT":2640,"time": "2018-08-15 03:42:09pm", "schedule_type": "STATIC", "schedule_name": "random_11", "is_biased_choice":false,"side_choice": "RIGHT", "trial_number":96,"observed_reward":0,"unobserved_reward":0},{"RT":2712,"time": "2018-08-15 03:42:11pm", "schedule_type": "STATIC", "schedule_name": "random_11", "is_biased_choice":false,"side_choice": "RIGHT", "trial_number":97,"observed_reward":0,"unobserved_reward":0},{"RT":2776,"time": "2018-08-15 03:42:14pm", "schedule_type": "STATIC", "schedule_name": "random_11", "is_biased_choice":false,"side_choice": "RIGHT", "trial_number":98,"observed_reward":1,"unobserved_reward":0},