[{"RT":5601,"time": "2018-08-15 03:28:12pm", "schedule_type": "STATIC", "schedule_name": "random_11", "is_biased_choice":true,"side_choice": "LEFT", "trial_number":0,"observed_reward":0,"unobserved_reward":0},{"RT":3853,"time": "2018-08-15 03:28:16pm", "schedule_type": "STATIC", "schedule_name": "random_11", "is_biased_choice":false,"side_choice": "RIGHT", "trial_number":1,"observed_reward":0,"unobserved_reward":1},{"RT":3318,"time": "2018-08-15 03:28:19pm", "schedule_type": "STATIC", "schedule_name": "random_11", "is_biased_choice":true,"side_choice": "LEFT", "trial_number":2,"observed_reward":0,"unobserved_reward":0},{"RT":3028,"time": "2018-08-15 03:28:22pm", "schedule_type": "STATIC", "schedule_name": "random_11", "is_biased_choice":true,"side_choice": "LEFT", "trial_number":3,"observed_reward":0,"unobserved_reward":0},{"RT":2800,"time": "2018-08-15 03:28:25pm", "schedule_type": "STATIC", "schedule_name": "random_11", "is_biased_choice":true,"side_choice": "LEFT", "trial_number":4,"observed_reward":0,"unobserved_reward":0},{"RT":2724,"time": "2018-08-15 03:28:27pm", "schedule_type": "STATIC", "schedule_name": "random_11", "is_biased_choice":false,"side_choice": "RIGHT", "trial_number":5,"observed_reward":1,"unobserved_reward":1},{"RT":3355,"time": "2018-08-15 03:28:31pm", "schedule_type": "STATIC", "schedule_name": "random_11", "is_biased_choice":false,"side_choice": "RIGHT", "trial_number":6,"observed_reward":0,"unobserved_reward":1},{"RT":3183,"time": "2018-08-15 03:28:34pm", "schedule_type": "STATIC", "schedule_name": "random_11", "is_biased_choice":false,"side_choice": "RIGHT", "trial_number":7,"observed_reward":1,"unobserved_reward":1},{"RT":3402,"time": "2018-08-15 03:28:37pm", "schedule_type": "STATIC", "schedule_name": "random_11", "is_biased_choice":false,"side_choice": "RIGHT", "trial_number":8,"observed_reward":1,"unobserved_reward":0},{"RT":3050,"time": "2018-08-15 03:28:40pm", "schedule_type": "STATIC", "schedule_name": "random_11", "is_biased_choice":false,"side_choice": "RIGHT", "trial_number":9,"observed_reward":0,"unobserved_reward":0},{"RT":2941,"time": "2018-08-15 03:28:43pm", "schedule_type": "STATIC", "schedule_name": "random_11", "is_biased_choice":false,"side_choice": "RIGHT", "trial_number":10,"observed_reward":0,"unobserved_reward":0},{"RT":2841,"time": "2018-08-15 03:28:46pm", "schedule_type": "STATIC", "schedule_name": "random_11", "is_biased_choice":false,"side_choice": "RIGHT", "trial_number":11,"observed_reward":0,"unobserved_reward":0},{"RT":2894,"time": "2018-08-15 03:28:49pm", "schedule_type": "STATIC", "schedule_name": "random_11", "is_biased_choice":false,"side_choice": "RIGHT", "trial_number":12,"observed_reward":0,"unobserved_reward":0},{"RT":12710,"time": "2018-08-15 03:29:02pm", "schedule_type": "STATIC", "schedule_name": "random_11", "is_biased_choice":true,"side_choice": "LEFT", "trial_number":13,"observed_reward":0,"unobserved_reward":0},{"RT":3072,"time": "2018-08-15 03:29:05pm", "schedule_type": "STATIC", "schedule_name": "random_11", "is_biased_choice":true,"side_choice": "LEFT", "trial_number":14,"observed_reward":1,"unobserved_reward":0},{"RT":2926,"time": "2018-08-15 03:29:08pm", "schedule_type": "STATIC", "schedule_name": "random_11", "is_biased_choice":true,"side_choice": "LEFT", "trial_number":15,"observed_reward":0,"unobserved_reward":0},{"RT":2659,"time": "2018-08-15 03:29:10pm", "schedule_type": "STATIC", "schedule_name": "random_11", "is_biased_choice":true,"side_choice": "LEFT", "trial_number":16,"observed_reward":0,"unobserved_reward":0},{"RT":2661,"time": "2018-08-15 03:29:15pm", "schedule_type": "STATIC", "schedule_name": "random_11", "is_biased_choice":false,"side_choice": "RIGHT", "trial_number":17,"observed_reward":0,"unobserved_reward":1},{"RT":3875,"time": "2018-08-15 03:29:17pm", "schedule_type": "STATIC", "schedule_name": "random_11", "is_biased_choice":true,"side_choice": "LEFT", "trial_number":18,"observed_reward":0,"unobserved_reward":1},{"RT":3075,"time": "2018-08-15 03:29:20pm", "schedule_type": "STATIC", "schedule_name": "random_11", "is_biased_choice":true,"side_choice": "LEFT", "trial_number":19,"observed_reward":0,"unobserved_reward":0},{"RT":2800,"time": "2018-08-15 03:29:23pm", "schedule_type": "STATIC", "schedule_name": "random_11", "is_biased_choice":true,"side_choice": "LEFT", "trial_number":20,"observed_reward":0,"unobserved_reward":0},{"RT":2942,"time": "2018-08-15 03:29:26pm", "schedule_type": "STATIC", "schedule_name": "random_11", "is_biased_choice":false,"side_choice": "RIGHT", "trial_number":21,"observed_reward":0,"unobserved_reward":0},{"RT":2722,"time": "2018-08-15 03:29:29pm", "schedule_type": "STATIC", "schedule_name": "random_11", "is_biased_choice":false,"side_choice": "RIGHT", "trial_number":22,"observed_reward":1,"unobserved_reward":0},{"RT":2740,"time": "2018-08-15 03:29:31pm", "schedule_type": "STATIC", "schedule_name": "random_11", "is_biased_choice":false,"side_choice": "RIGHT", "trial_number":23,"observed_reward":0,"unobserved_reward":0},{"RT":2596,"time": "2018-08-15 03:29:34pm", "schedule_type": "STATIC", "schedule_name": "random_11", "is_biased_choice":false,"side_choice": "RIGHT", "trial_number":24,"observed_reward":0,"unobserved_reward":0},{"RT":3262,"time": "2018-08-15 03:29:37pm", "schedule_type": "STATIC", "schedule_name": "random_11", "is_biased_choice":false,"side_choice": "RIGHT", "trial_number":25,"observed_reward":0,"unobserved_reward":0},{"RT":3018,"time": "2018-08-15 03:29:40pm", "schedule_type": "STATIC", "schedule_name": "random_11", "is_biased_choice":false,"side_choice": "RIGHT", "trial_number":26,"observed_reward":0,"unobserved_reward":0},{"RT":2660,"time": "2018-08-15 03:29:43pm", "schedule_type": "STATIC", "schedule_name": "random_11", "is_biased_choice":false,"side_choice": "RIGHT", "trial_number":27,"observed_reward":0,"unobserved_reward":1},{"RT":2777,"time": "2018-08-15 03:29:46pm", "schedule_type": "STATIC", "schedule_name": "random_11", "is_biased_choice":false,"side_choice": "RIGHT", "trial_number":28,"observed_reward":0,"unobserved_reward":0},{"RT":2933,"time": "2018-08-15 03:29:48pm", "schedule_type": "STATIC", "schedule_name": "random_11", "is_biased_choice":true,"side_choice": "LEFT", "trial_number":29,"observed_reward":0,"unobserved_reward":0},{"RT":2959,"time": "2018-08-15 03:29:51pm", "schedule_type": "STATIC", "schedule_name": "random_11", "is_biased_choice":true,"side_choice": "LEFT", "trial_number":30,"observed_reward":1,"unobserved_reward":1},{"RT":2885,"time": "2018-08-15 03:29:54pm", "schedule_type": "STATIC", "schedule_name": "random_11", "is_biased_choice":true,"side_choice": "LEFT", "trial_number":31,"observed_reward":0,"unobserved_reward":1},{"RT":2692,"time": "2018-08-15 03:29:57pm", "schedule_type": "STATIC", "schedule_name": "random_11", "is_biased_choice":true,"side_choice": "LEFT", "trial_number":32,"observed_reward":0,"unobserved_reward":0},{"RT":2611,"time": "2018-08-15 03:30:00pm", "schedule_type": "STATIC", "schedule_name": "random_11", "is_biased_choice":true,"side_choice": "LEFT", "trial_number":33,"observed_reward":0,"unobserved_reward":1},{"RT":2653,"time": "2018-08-15 03:30:02pm", "schedule_type": "STATIC", "schedule_name": "random_11", "is_biased_choice":true,"side_choice": "LEFT", "trial_number":34,"observed_reward":0,"unobserved_reward":0},{"RT":2700,"time": "2018-08-15 03:30:05pm", "schedule_type": "STATIC", "schedule_name": "random_11", "is_biased_choice":true,"side_choice": "LEFT", "trial_number":35,"observed_reward":0,"unobserved_reward":0},{"RT":2714,"time": "2018-08-15 03:30:08pm", "schedule_type": "STATIC", "schedule_name": "random_11", "is_biased_choice":true,"side_choice": "LEFT", "trial_number":36,"observed_reward":1,"unobserved_reward":0},{"RT":11701,"time": "2018-08-15 03:30:19pm", "schedule_type": "STATIC", "schedule_name": "random_11", "is_biased_choice":false,"side_choice": "RIGHT", "trial_number":37,"observed_reward":0,"unobserved_reward":1},{"RT":2924,"time": "2018-08-15 03:30:22pm", "schedule_type": "STATIC", "schedule_name": "random_11", "is_biased_choice":false,"side_choice": "RIGHT", "trial_number":38,"observed_reward":1,"unobserved_reward":1},{"RT":2785,"time": "2018-08-15 03:30:25pm", "schedule_type": "STATIC", "schedule_name": "random_11", "is_biased_choice":false,"side_choice": "RIGHT", "trial_number":39,"observed_reward":1,"unobserved_reward":0},{"RT":2732,"time": "2018-08-15 03:30:28pm", "schedule_type": "STATIC", "schedule_name": "random_11", "is_biased_choice":false,"side_choice": "RIGHT", "trial_number":40,"observed_reward":0,"unobserved_reward":0},{"RT":2730,"time": "2018-08-15 03:30:31pm", "schedule_type": "STATIC", "schedule_name": "random_11", "is_biased_choice":false,"side_choice": "RIGHT", "trial_number":41,"observed_reward":0,"unobserved_reward":0},{"RT":2746,"time": "2018-08-15 03:30:33pm", "schedule_type": "STATIC", "schedule_name": "random_11", "is_biased_choice":false,"side_choice": "RIGHT", "trial_number":42,"observed_reward":0,"unobserved_reward":0},{"RT":2800,"time": "2018-08-15 03:30:36pm", "schedule_type": "STATIC", "schedule_name": "random_11", "is_biased_choice":true,"side_choice": "LEFT", "trial_number":43,"observed_reward":1,"unobserved_reward":0},{"RT":2729,"time": "2018-08-15 03:30:39pm", "schedule_type": "STATIC", "schedule_name": "random_11", "is_biased_choice":true,"side_choice": "LEFT", "trial_number":44,"observed_reward":0,"unobserved_reward":0},{"RT":2809,"time": "2018-08-15 03:30:42pm", "schedule_type": "STATIC", "schedule_name": "random_11", "is_biased_choice":true,"side_choice": "LEFT", "trial_number":45,"observed_reward":0,"unobserved_reward":1},{"RT":2885,"time": "2018-08-15 03:30:45pm", "schedule_type": "STATIC", "schedule_name": "random_11", "is_biased_choice":true,"side_choice": "LEFT", "trial_number":46,"observed_reward":0,"unobserved_reward":0},{"RT":2839,"time": "2018-08-15 03:30:47pm", "schedule_type": "STATIC", "schedule_name": "random_11", "is_biased_choice":false,"side_choice": "RIGHT", "trial_number":47,"observed_reward":0,"unobserved_reward":0},{"RT":2886,"time": "2018-08-15 03:30:50pm", "schedule_type": "STATIC", "schedule_name": "random_11", "is_biased_choice":true,"side_choice": "LEFT", "trial_number":48,"observed_reward":1,"unobserved_reward":0},{"RT":2942,"time": "2018-08-15 03:30:53pm", "schedule_type": "STATIC", "schedule_name": "random_11", "is_biased_choice":true,"side_choice": "LEFT", "trial_number":49,"observed_reward":0,"unobserved_reward":1},{"RT":2894,"time": "2018-08-15 03:30:56pm", "schedule_type": "STATIC", "schedule_name": "random_11", "is_biased_choice":true,"side_choice": "LEFT", "trial_number":50,"observed_reward":1,"unobserved_reward":0},{"RT":3352,"time": "2018-08-15 03:31:00pm", "schedule_type": "STATIC", "schedule_name": "random_11", "is_biased_choice":true,"side_choice": "LEFT", "trial_number":51,"observed_reward":0,"unobserved_reward":1},{"RT":2926,"time": "2018-08-15 03:31:02pm", "schedule_type": "STATIC", "schedule_name": "random_11", "is_biased_choice":true,"side_choice": "LEFT", "trial_number":52,"observed_reward":0,"unobserved_reward":1},{"RT":3514,"time": "2018-08-15 03:31:06pm", "schedule_type": "STATIC", "schedule_name": "random_11", "is_biased_choice":false,"side_choice": "RIGHT", "trial_number":53,"observed_reward":0,"unobserved_reward":0},{"RT":2718,"time": "2018-08-15 03:31:09pm", "schedule_type": "STATIC", "schedule_name": "random_11", "is_biased_choice":false,"side_choice": "RIGHT", "trial_number":54,"observed_reward":0,"unobserved_reward":0},{"RT":2744,"time": "2018-08-15 03:31:11pm", "schedule_type": "STATIC", "schedule_name": "random_11", "is_biased_choice":false,"side_choice": "RIGHT", "trial_number":55,"observed_reward":0,"unobserved_reward":1},{"RT":2699,"time": "2018-08-15 03:31:14pm", "schedule_type": "STATIC", "schedule_name": "random_11", "is_biased_choice":false,"side_choice": "RIGHT", "trial_number":56,"observed_reward":1,"unobserved_reward":0},{"RT":2915,"time": "2018-08-15 03:31:17pm", "schedule_type": "STATIC", "schedule_name": "random_11", "is_biased_choice":false,"side_choice": "RIGHT", "trial_number":57,"observed_reward":1,"unobserved_reward":0},{"RT":2826,"time": "2018-08-15 03:31:20pm", "schedule_type": "STATIC", "schedule_name": "random_11", "is_biased_choice":false,"side_choice": "RIGHT", "trial_number":58,"observed_reward":0,"unobserved_reward":1},{"RT":2893,"time": "2018-08-15 03:31:23pm", "schedule_type": "STATIC", "schedule_name": "random_11", "is_biased_choice":false,"side_choice": "RIGHT", "trial_number":59,"observed_reward":0,"unobserved_reward":1},{"RT":3393,"time": "2018-08-15 03:31:26pm", "schedule_type": "STATIC", "schedule_name": "random_11", "is_biased_choice":false,"side_choice": "RIGHT", "trial_number":60,"observed_reward":0,"unobserved_reward":0},{"RT":4469,"time": "2018-08-15 03:31:31pm", "schedule_type": "STATIC", "schedule_name": "random_11", "is_biased_choice":false,"side_choice": "RIGHT", "trial_number":61,"observed_reward":0,"unobserved_reward":0},{"RT":2410,"time": "2018-08-15 03:31:33pm", "schedule_type": "STATIC", "schedule_name": "random_11", "is_biased_choice":false,"side_choice": "RIGHT", "trial_number":62,"observed_reward":1,"unobserved_reward":0},{"RT":5803,"time": "2018-08-15 03:31:39pm", "schedule_type": "STATIC", "schedule_name": "random_11", "is_biased_choice":false,"side_choice": "RIGHT", "trial_number":63,"observed_reward":0,"unobserved_reward":0},{"RT":25622,"time": "2018-08-15 03:32:04pm", "schedule_type": "STATIC", "schedule_name": "random_11", "is_biased_choice":false,"side_choice": "RIGHT", "trial_number":64,"observed_reward":1,"unobserved_reward":0},