[{"RT":4174,"time": "2018-08-15 03:27:33pm", "schedule_type": "STATIC", "schedule_name": "random_11", "is_biased_choice":true,"side_choice": "RIGHT", "trial_number":0,"observed_reward":0,"unobserved_reward":0},{"RT":4147,"time": "2018-08-15 03:27:37pm", "schedule_type": "STATIC", "schedule_name": "random_11", "is_biased_choice":false,"side_choice": "LEFT", "trial_number":1,"observed_reward":0,"unobserved_reward":1},{"RT":3131,"time": "2018-08-15 03:27:40pm", "schedule_type": "STATIC", "schedule_name": "random_11", "is_biased_choice":false,"side_choice": "LEFT", "trial_number":2,"observed_reward":0,"unobserved_reward":0},{"RT":2957,"time": "2018-08-15 03:27:44pm", "schedule_type": "STATIC", "schedule_name": "random_11", "is_biased_choice":true,"side_choice": "RIGHT", "trial_number":3,"observed_reward":0,"unobserved_reward":0},{"RT":2796,"time": "2018-08-15 03:27:46pm", "schedule_type": "STATIC", "schedule_name": "random_11", "is_biased_choice":true,"side_choice": "RIGHT", "trial_number":4,"observed_reward":0,"unobserved_reward":0},{"RT":2736,"time": "2018-08-15 03:27:49pm", "schedule_type": "STATIC", "schedule_name": "random_11", "is_biased_choice":true,"side_choice": "RIGHT", "trial_number":5,"observed_reward":1,"unobserved_reward":1},{"RT":3929,"time": "2018-08-15 03:27:53pm", "schedule_type": "STATIC", "schedule_name": "random_11", "is_biased_choice":true,"side_choice": "RIGHT", "trial_number":6,"observed_reward":1,"unobserved_reward":0},{"RT":2757,"time": "2018-08-15 03:27:55pm", "schedule_type": "STATIC", "schedule_name": "random_11", "is_biased_choice":true,"side_choice": "RIGHT", "trial_number":7,"observed_reward":1,"unobserved_reward":1},{"RT":2941,"time": "2018-08-15 03:27:58pm", "schedule_type": "STATIC", "schedule_name": "random_11", "is_biased_choice":true,"side_choice": "RIGHT", "trial_number":8,"observed_reward":0,"unobserved_reward":1},{"RT":3185,"time": "2018-08-15 03:28:02pm", "schedule_type": "STATIC", "schedule_name": "random_11", "is_biased_choice":true,"side_choice": "RIGHT", "trial_number":9,"observed_reward":0,"unobserved_reward":0},{"RT":2417,"time": "2018-08-15 03:28:04pm", "schedule_type": "STATIC", "schedule_name": "random_11", "is_biased_choice":false,"side_choice": "LEFT", "trial_number":10,"observed_reward":0,"unobserved_reward":0},{"RT":2594,"time": "2018-08-15 03:28:07pm", "schedule_type": "STATIC", "schedule_name": "random_11", "is_biased_choice":false,"side_choice": "LEFT", "trial_number":11,"observed_reward":0,"unobserved_reward":0},{"RT":2385,"time": "2018-08-15 03:28:09pm", "schedule_type": "STATIC", "schedule_name": "random_11", "is_biased_choice":true,"side_choice": "RIGHT", "trial_number":12,"observed_reward":0,"unobserved_reward":0},{"RT":2429,"time": "2018-08-15 03:28:11pm", "schedule_type": "STATIC", "schedule_name": "random_11", "is_biased_choice":true,"side_choice": "RIGHT", "trial_number":13,"observed_reward":0,"unobserved_reward":0},{"RT":2539,"time": "2018-08-15 03:28:14pm", "schedule_type": "STATIC", "schedule_name": "random_11", "is_biased_choice":false,"side_choice": "LEFT", "trial_number":14,"observed_reward":0,"unobserved_reward":1},{"RT":3950,"time": "2018-08-15 03:28:18pm", "schedule_type": "STATIC", "schedule_name": "random_11", "is_biased_choice":false,"side_choice": "LEFT", "trial_number":15,"observed_reward":0,"unobserved_reward":0},{"RT":2833,"time": "2018-08-15 03:28:21pm", "schedule_type": "STATIC", "schedule_name": "random_11", "is_biased_choice":false,"side_choice": "LEFT", "trial_number":16,"observed_reward":0,"unobserved_reward":0},{"RT":2462,"time": "2018-08-15 03:28:23pm", "schedule_type": "STATIC", "schedule_name": "random_11", "is_biased_choice":false,"side_choice": "LEFT", "trial_number":17,"observed_reward":0,"unobserved_reward":1},{"RT":2506,"time": "2018-08-15 03:28:26pm", "schedule_type": "STATIC", "schedule_name": "random_11", "is_biased_choice":false,"side_choice": "LEFT", "trial_number":18,"observed_reward":1,"unobserved_reward":0},{"RT":2407,"time": "2018-08-15 03:28:28pm", "schedule_type": "STATIC", "schedule_name": "random_11", "is_biased_choice":false,"side_choice": "LEFT", "trial_number":19,"observed_reward":0,"unobserved_reward":0},{"RT":2604,"time": "2018-08-15 03:28:31pm", "schedule_type": "STATIC", "schedule_name": "random_11", "is_biased_choice":true,"side_choice": "RIGHT", "trial_number":20,"observed_reward":0,"unobserved_reward":0},{"RT":2385,"time": "2018-08-15 03:28:33pm", "schedule_type": "STATIC", "schedule_name": "random_11", "is_biased_choice":true,"side_choice": "RIGHT", "trial_number":21,"observed_reward":0,"unobserved_reward":0},{"RT":2146,"time": "2018-08-15 03:28:35pm", "schedule_type": "STATIC", "schedule_name": "random_11", "is_biased_choice":false,"side_choice": "LEFT", "trial_number":22,"observed_reward":1,"unobserved_reward":0},{"RT":2187,"time": "2018-08-15 03:28:37pm", "schedule_type": "STATIC", "schedule_name": "random_11", "is_biased_choice":false,"side_choice": "LEFT", "trial_number":23,"observed_reward":0,"unobserved_reward":0},{"RT":2485,"time": "2018-08-15 03:28:40pm", "schedule_type": "STATIC", "schedule_name": "random_11", "is_biased_choice":false,"side_choice": "LEFT", "trial_number":24,"observed_reward":0,"unobserved_reward":0},{"RT":2472,"time": "2018-08-15 03:28:42pm", "schedule_type": "STATIC", "schedule_name": "random_11", "is_biased_choice":false,"side_choice": "LEFT", "trial_number":25,"observed_reward":0,"unobserved_reward":0},{"RT":2199,"time": "2018-08-15 03:28:45pm", "schedule_type": "STATIC", "schedule_name": "random_11", "is_biased_choice":false,"side_choice": "LEFT", "trial_number":26,"observed_reward":0,"unobserved_reward":0},{"RT":1937,"time": "2018-08-15 03:28:47pm", "schedule_type": "STATIC", "schedule_name": "random_11", "is_biased_choice":true,"side_choice": "RIGHT", "trial_number":27,"observed_reward":1,"unobserved_reward":0},{"RT":2158,"time": "2018-08-15 03:28:49pm", "schedule_type": "STATIC", "schedule_name": "random_11", "is_biased_choice":true,"side_choice": "RIGHT", "trial_number":28,"observed_reward":0,"unobserved_reward":0},{"RT":2395,"time": "2018-08-15 03:28:51pm", "schedule_type": "STATIC", "schedule_name": "random_11", "is_biased_choice":true,"side_choice": "RIGHT", "trial_number":29,"observed_reward":0,"unobserved_reward":0},{"RT":2207,"time": "2018-08-15 03:28:54pm", "schedule_type": "STATIC", "schedule_name": "random_11", "is_biased_choice":false,"side_choice": "LEFT", "trial_number":30,"observed_reward":1,"unobserved_reward":1},{"RT":2626,"time": "2018-08-15 03:28:56pm", "schedule_type": "STATIC", "schedule_name": "random_11", "is_biased_choice":true,"side_choice": "RIGHT", "trial_number":31,"observed_reward":0,"unobserved_reward":1},{"RT":2757,"time": "2018-08-15 03:28:59pm", "schedule_type": "STATIC", "schedule_name": "random_11", "is_biased_choice":false,"side_choice": "LEFT", "trial_number":32,"observed_reward":0,"unobserved_reward":0},{"RT":2103,"time": "2018-08-15 03:29:01pm", "schedule_type": "STATIC", "schedule_name": "random_11", "is_biased_choice":false,"side_choice": "LEFT", "trial_number":33,"observed_reward":1,"unobserved_reward":0},{"RT":2297,"time": "2018-08-15 03:29:03pm", "schedule_type": "STATIC", "schedule_name": "random_11", "is_biased_choice":true,"side_choice": "RIGHT", "trial_number":34,"observed_reward":0,"unobserved_reward":0},{"RT":2385,"time": "2018-08-15 03:29:05pm", "schedule_type": "STATIC", "schedule_name": "random_11", "is_biased_choice":false,"side_choice": "LEFT", "trial_number":35,"observed_reward":0,"unobserved_reward":0},{"RT":2156,"time": "2018-08-15 03:29:08pm", "schedule_type": "STATIC", "schedule_name": "random_11", "is_biased_choice":false,"side_choice": "LEFT", "trial_number":36,"observed_reward":0,"unobserved_reward":1},{"RT":2156,"time": "2018-08-15 03:29:10pm", "schedule_type": "STATIC", "schedule_name": "random_11", "is_biased_choice":false,"side_choice": "LEFT", "trial_number":37,"observed_reward":0,"unobserved_reward":1},{"RT":2209,"time": "2018-08-15 03:29:14pm", "schedule_type": "STATIC", "schedule_name": "random_11", "is_biased_choice":true,"side_choice": "RIGHT", "trial_number":38,"observed_reward":1,"unobserved_reward":1},{"RT":2638,"time": "2018-08-15 03:29:15pm", "schedule_type": "STATIC", "schedule_name": "random_11", "is_biased_choice":true,"side_choice": "RIGHT", "trial_number":39,"observed_reward":0,"unobserved_reward":1},{"RT":3971,"time": "2018-08-15 03:29:19pm", "schedule_type": "STATIC", "schedule_name": "random_11", "is_biased_choice":false,"side_choice": "LEFT", "trial_number":40,"observed_reward":0,"unobserved_reward":0},{"RT":3215,"time": "2018-08-15 03:29:22pm", "schedule_type": "STATIC", "schedule_name": "random_11", "is_biased_choice":true,"side_choice": "RIGHT", "trial_number":41,"observed_reward":0,"unobserved_reward":0},{"RT":2409,"time": "2018-08-15 03:29:24pm", "schedule_type": "STATIC", "schedule_name": "random_11", "is_biased_choice":true,"side_choice": "RIGHT", "trial_number":42,"observed_reward":0,"unobserved_reward":0},{"RT":2493,"time": "2018-08-15 03:29:27pm", "schedule_type": "STATIC", "schedule_name": "random_11", "is_biased_choice":false,"side_choice": "LEFT", "trial_number":43,"observed_reward":0,"unobserved_reward":1},{"RT":2274,"time": "2018-08-15 03:29:29pm", "schedule_type": "STATIC", "schedule_name": "random_11", "is_biased_choice":false,"side_choice": "LEFT", "trial_number":44,"observed_reward":0,"unobserved_reward":0},{"RT":2620,"time": "2018-08-15 03:29:32pm", "schedule_type": "STATIC", "schedule_name": "random_11", "is_biased_choice":true,"side_choice": "RIGHT", "trial_number":45,"observed_reward":0,"unobserved_reward":1},{"RT":2282,"time": "2018-08-15 03:29:34pm", "schedule_type": "STATIC", "schedule_name": "random_11", "is_biased_choice":true,"side_choice": "RIGHT", "trial_number":46,"observed_reward":0,"unobserved_reward":0},{"RT":2484,"time": "2018-08-15 03:29:36pm", "schedule_type": "STATIC", "schedule_name": "random_11", "is_biased_choice":true,"side_choice": "RIGHT", "trial_number":47,"observed_reward":0,"unobserved_reward":0},{"RT":2455,"time": "2018-08-15 03:29:39pm", "schedule_type": "STATIC", "schedule_name": "random_11", "is_biased_choice":true,"side_choice": "RIGHT", "trial_number":48,"observed_reward":1,"unobserved_reward":0},{"RT":2776,"time": "2018-08-15 03:29:42pm", "schedule_type": "STATIC", "schedule_name": "random_11", "is_biased_choice":false,"side_choice": "LEFT", "trial_number":49,"observed_reward":1,"unobserved_reward":0},{"RT":2473,"time": "2018-08-15 03:29:44pm", "schedule_type": "STATIC", "schedule_name": "random_11", "is_biased_choice":true,"side_choice": "RIGHT", "trial_number":50,"observed_reward":1,"unobserved_reward":0},{"RT":2451,"time": "2018-08-15 03:29:47pm", "schedule_type": "STATIC", "schedule_name": "random_11", "is_biased_choice":false,"side_choice": "LEFT", "trial_number":51,"observed_reward":1,"unobserved_reward":0},{"RT":2469,"time": "2018-08-15 03:29:49pm", "schedule_type": "STATIC", "schedule_name": "random_11", "is_biased_choice":true,"side_choice": "RIGHT", "trial_number":52,"observed_reward":0,"unobserved_reward":1},{"RT":2738,"time": "2018-08-15 03:29:52pm", "schedule_type": "STATIC", "schedule_name": "random_11", "is_biased_choice":true,"side_choice": "RIGHT", "trial_number":53,"observed_reward":0,"unobserved_reward":0},{"RT":2487,"time": "2018-08-15 03:29:54pm", "schedule_type": "STATIC", "schedule_name": "random_11", "is_biased_choice":true,"side_choice": "RIGHT", "trial_number":54,"observed_reward":0,"unobserved_reward":0},{"RT":2384,"time": "2018-08-15 03:29:57pm", "schedule_type": "STATIC", "schedule_name": "random_11", "is_biased_choice":false,"side_choice": "LEFT", "trial_number":55,"observed_reward":0,"unobserved_reward":1},{"RT":2176,"time": "2018-08-15 03:29:59pm", "schedule_type": "STATIC", "schedule_name": "random_11", "is_biased_choice":false,"side_choice": "LEFT", "trial_number":56,"observed_reward":1,"unobserved_reward":0},{"RT":2254,"time": "2018-08-15 03:30:01pm", "schedule_type": "STATIC", "schedule_name": "random_11", "is_biased_choice":false,"side_choice": "LEFT", "trial_number":57,"observed_reward":1,"unobserved_reward":0},{"RT":2615,"time": "2018-08-15 03:30:04pm", "schedule_type": "STATIC", "schedule_name": "random_11", "is_biased_choice":true,"side_choice": "RIGHT", "trial_number":58,"observed_reward":1,"unobserved_reward":0},{"RT":2560,"time": "2018-08-15 03:30:06pm", "schedule_type": "STATIC", "schedule_name": "random_11", "is_biased_choice":true,"side_choice": "RIGHT", "trial_number":59,"observed_reward":1,"unobserved_reward":0},{"RT":2343,"time": "2018-08-15 03:30:09pm", "schedule_type": "STATIC", "schedule_name": "random_11", "is_biased_choice":false,"side_choice": "LEFT", "trial_number":60,"observed_reward":0,"unobserved_reward":0},{"RT":2243,"time": "2018-08-15 03:30:11pm", "schedule_type": "STATIC", "schedule_name": "random_11", "is_biased_choice":false,"side_choice": "LEFT", "trial_number":61,"observed_reward":0,"unobserved_reward":0},{"RT":2439,"time": "2018-08-15 03:30:13pm", "schedule_type": "STATIC", "schedule_name": "random_11", "is_biased_choice":false,"side_choice": "LEFT", "trial_number":62,"observed_reward":1,"unobserved_reward":0},{"RT":2637,"time": "2018-08-15 03:30:16pm", "schedule_type": "STATIC", "schedule_name": "random_11", "is_biased_choice":false,"side_choice": "LEFT", "trial_number":63,"observed_reward":0,"unobserved_reward":0},{"RT":2748,"time": "2018-08-15 03:30:19pm", "schedule_type": "STATIC", "schedule_name": "random_11", "is_biased_choice":true,"side_choice": "RIGHT", "trial_number":64,"observed_reward":0,"unobserved_reward":1},{"RT":2288,"time": "2018-08-15 03:30:21pm", "schedule_type": "STATIC", "schedule_name": "random_11", "is_biased_choice":false,"side_choice": "LEFT", "trial_number":65,"observed_reward":1,"unobserved_reward":0},{"RT":2263,"time": "2018-08-15 03:30:23pm", "schedule_type": "STATIC", "schedule_name": "random_11", "is_biased_choice":false,"side_choice": "LEFT", "trial_number":66,"observed_reward":1,"unobserved_reward":1},{"RT":2876,"time": "2018-08-15 03:30:26pm", "schedule_type": "STATIC", "schedule_name": "random_11", "is_biased_choice":false,"side_choice": "LEFT", "trial_number":67,"observed_reward":1,"unobserved_reward":0},{"RT":2134,"time": "2018-08-15 03:30:28pm", "schedule_type": "STATIC", "schedule_name": "random_11", "is_biased_choice":false,"side_choice": "LEFT", "trial_number":68,"observed_reward":0,"unobserved_reward":0},{"RT":2165,"time": "2018-08-15 03:30:30pm", "schedule_type": "STATIC", "schedule_name": "random_11", "is_biased_choice":true,"side_choice": "RIGHT", "trial_number":69,"observed_reward":1,"unobserved_reward":0},{"RT":2222,"time": "2018-08-15 03:30:33pm", "schedule_type": "STATIC", "schedule_name": "random_11", "is_biased_choice":true,"side_choice": "RIGHT", "trial_number":70,"observed_reward":0,"unobserved_reward":0},{"RT":2156,"time": "2018-08-15 03:30:35pm", "schedule_type": "STATIC", "schedule_name": "random_11", "is_biased_choice":true,"side_choice": "RIGHT", "trial_number":71,"observed_reward":0,"unobserved_reward":0},{"RT":2386,"time": "2018-08-15 03:30:37pm", "schedule_type": "STATIC", "schedule_name": "random_11", "is_biased_choice":false,"side_choice": "LEFT", "trial_number":72,"observed_reward":0,"unobserved_reward":0},{"RT":2265,"time": "2018-08-15 03:30:39pm", "schedule_type": "STATIC", "schedule_name": "random_11", "is_biased_choice":true,"side_choice": "RIGHT", "trial_number":73,"observed_reward":0,"unobserved_reward":0},{"RT":2112,"time": "2018-08-15 03:30:41pm", "schedule_type": "STATIC", "schedule_name": "random_11", "is_biased_choice":true,"side_choice": "RIGHT", "trial_number":74,"observed_reward":0,"unobserved_reward":0},{"RT":2144,"time": "2018-08-15 03:30:44pm", "schedule_type": "STATIC", "schedule_name": "random_11", "is_biased_choice":true,"side_choice": "RIGHT", "trial_number":75,"observed_reward":0,"unobserved_reward":1},{"RT":2376,"time": "2018-08-15 03:30:46pm", "schedule_type": "STATIC", "schedule_name": "random_11", "is_biased_choice":true,"side_choice": "RIGHT", "trial_number":76,"observed_reward":0,"unobserved_reward":0},{"RT":2228,"time": "2018-08-15 03:30:48pm", "schedule_type": "STATIC", "schedule_name": "random_11", "is_biased_choice":true,"side_choice": "RIGHT", "trial_number":77,"observed_reward":0,"unobserved_reward":0},{"RT":2114,"time": "2018-08-15 03:30:50pm", "schedule_type": "STATIC", "schedule_name": "random_11", "is_biased_choice":false,"side_choice": "LEFT", "trial_number":78,"observed_reward":0,"unobserved_reward":0},{"RT":2112,"time": "2018-08-15 03:30:52pm", "schedule_type": "STATIC", "schedule_name": "random_11", "is_biased_choice":false,"side_choice": "LEFT", "trial_number":79,"observed_reward":0,"unobserved_reward":0},{"RT":2156,"time": "2018-08-15 03:30:55pm", "schedule_type": "STATIC", "schedule_name": "random_11", "is_biased_choice":true,"side_choice": "RIGHT", "trial_number":80,"observed_reward":1,"unobserved_reward":0},{"RT":2252,"time": "2018-08-15 03:30:57pm", "schedule_type": "STATIC", "schedule_name": "random_11", "is_biased_choice":true,"side_choice": "RIGHT", "trial_number":81,"observed_reward":0,"unobserved_reward":0},{"RT":2090,"time": "2018-08-15 03:30:59pm", "schedule_type": "STATIC", "schedule_name": "random_11", "is_biased_choice":false,"side_choice": "LEFT", "trial_number":82,"observed_reward":0,"unobserved_reward":1},{"RT":2178,"time": "2018-08-15 03:31:01pm", "schedule_type": "STATIC", "schedule_name": "random_11", "is_biased_choice":false,"side_choice": "LEFT", "trial_number":83,"observed_reward":0,"unobserved_reward":0},{"RT":2123,"time": "2018-08-15 03:31:03pm", "schedule_type": "STATIC", "schedule_name": "random_11", "is_biased_choice":true,"side_choice": "RIGHT", "trial_number":84,"observed_reward":1,"unobserved_reward":0},{"RT":2461,"time": "2018-08-15 03:31:06pm", "schedule_type": "STATIC", "schedule_name": "random_11", "is_biased_choice":true,"side_choice": "RIGHT", "trial_number":85,"observed_reward":0,"unobserved_reward":0},{"RT":2222,"time": "2018-08-15 03:31:08pm", "schedule_type": "STATIC", "schedule_name": "random_11", "is_biased_choice":false,"side_choice": "LEFT", "trial_number":86,"observed_reward":0,"unobserved_reward":1},{"RT":2320,"time": "2018-08-15 03:31:10pm", "schedule_type": "STATIC", "schedule_name": "random_11", "is_biased_choice":true,"side_choice": "RIGHT", "trial_number":87,"observed_reward":0,"unobserved_reward":0},{"RT":2429,"time": "2018-08-15 03:31:13pm", "schedule_type": "STATIC", "schedule_name": "random_11", "is_biased_choice":true,"side_choice": "RIGHT", "trial_number":88,"observed_reward":0,"unobserved_reward":0},{"RT":2136,"time": "2018-08-15 03:31:15pm", "schedule_type": "STATIC", "schedule_name": "random_11", "is_biased_choice":true,"side_choice": "RIGHT", "trial_number":89,"observed_reward":1,"unobserved_reward":0},{"RT":2360,"time": "2018-08-15 03:31:17pm", "schedule_type": "STATIC", "schedule_name": "random_11", "is_biased_choice":true,"side_choice": "RIGHT", "trial_number":90,"observed_reward":0,"unobserved_reward":1},{"RT":2562,"time": "2018-08-15 03:31:20pm", "schedule_type": "STATIC", "schedule_name": "random_11", "is_biased_choice":false,"side_choice": "LEFT", "trial_number":91,"observed_reward":0,"unobserved_reward":0},{"RT":2306,"time": "2018-08-15 03:31:22pm", "schedule_type": "STATIC", "schedule_name": "random_11", "is_biased_choice":true,"side_choice": "RIGHT", "trial_number":92,"observed_reward":0,"unobserved_reward":0},{"RT":2530,"time": "2018-08-15 03:31:25pm", "schedule_type": "STATIC", "schedule_name": "random_11", "is_biased_choice":true,"side_choice": "RIGHT", "trial_number":93,"observed_reward":0,"unobserved_reward":0},{"RT":2275,"time": "2018-08-15 03:31:27pm", "schedule_type": "STATIC", "schedule_name": "random_11", "is_biased_choice":false,"side_choice": "LEFT", "trial_number":94,"observed_reward":0,"unobserved_reward":0},{"RT":2213,"time": "2018-08-15 03:31:29pm", "schedule_type": "STATIC", "schedule_name": "random_11", "is_biased_choice":true,"side_choice": "RIGHT", "trial_number":95,"observed_reward":1,"unobserved_reward":1},{"RT":2570,"time": "2018-08-15 03:31:32pm", "schedule_type": "STATIC", "schedule_name": "random_11", "is_biased_choice":true,"side_choice": "RIGHT", "trial_number":96,"observed_reward":0,"unobserved_reward":0},{"RT":2437,"time": "2018-08-15 03:31:34pm", "schedule_type": "STATIC", "schedule_name": "random_11", "is_biased_choice":false,"side_choice": "LEFT", "trial_number":97,"observed_reward":0,"unobserved_reward":0},{"RT":2452,"time": "2018-08-15 03:31:37pm", "schedule_type": "STATIC", "schedule_name": "random_11", "is_biased_choice":true,"side_choice": "RIGHT", "trial_number":98,"observed_reward":0,"unobserved_reward":1},{"RT":2303,"time": "2018-08-15 03:31:39pm", "schedule_type": "STATIC", "schedule_name": "random_11", "is_biased_choice":true,"side_choice": "RIGHT", "trial_number":99,"observed_reward":0,"unobserved_reward":0},