trial_number, time, schedule_type, schedule_name, is_biased_choice, side_choice, RT, observed_reward, unobserved_reward, biased_reward, unbiased_reward
0,2018-07-29 03:46:00pm, STATIC, random_15, true, LEFT, 7873, 0, 0, 0, 0
1,2018-07-29 03:46:04pm, STATIC, random_15, true, LEFT, 4215, 1, 0, 1, 0
2,2018-07-29 03:46:08pm, STATIC, random_15, true, LEFT, 3606, 0, 1, 0, 1
3,2018-07-29 03:46:11pm, STATIC, random_15, true, LEFT, 3079, 0, 1, 0, 1
4,2018-07-29 03:46:14pm, STATIC, random_15, true, LEFT, 2703, 1, 0, 1, 0
5,2018-07-29 03:46:17pm, STATIC, random_15, true, LEFT, 3165, 1, 0, 1, 0
6,2018-07-29 03:46:19pm, STATIC, random_15, true, LEFT, 2778, 0, 0, 0, 0
7,2018-07-29 03:46:22pm, STATIC, random_15, true, LEFT, 2574, 0, 0, 0, 0
8,2018-07-29 03:46:24pm, STATIC, random_15, true, LEFT, 2681, 1, 0, 1, 0
9,2018-07-29 03:46:28pm, STATIC, random_15, true, LEFT, 3084, 0, 0, 0, 0
10,2018-07-29 03:46:30pm, STATIC, random_15, true, LEFT, 2914, 1, 0, 1, 0
11,2018-07-29 03:46:34pm, STATIC, random_15, true, LEFT, 2752, 0, 0, 0, 0
12,2018-07-29 03:46:36pm, STATIC, random_15, true, LEFT, 2601, 0, 0, 0, 0
13,2018-07-29 03:46:39pm, STATIC, random_15, true, LEFT, 2732, 0, 0, 0, 0
14,2018-07-29 03:46:41pm, STATIC, random_15, true, LEFT, 2500, 0, 0, 0, 0
15,2018-07-29 03:46:44pm, STATIC, random_15, true, LEFT, 2501, 0, 0, 0, 0
16,2018-07-29 03:46:47pm, STATIC, random_15, false, RIGHT, 2635, 0, 0, 0, 0
17,2018-07-29 03:46:49pm, STATIC, random_15, false, RIGHT, 2581, 0, 0, 0, 0
18,2018-07-29 03:46:52pm, STATIC, random_15, true, LEFT, 2533, 0, 1, 0, 1
19,2018-07-29 03:46:54pm, STATIC, random_15, true, LEFT, 2750, 0, 0, 0, 0
20,2018-07-29 03:46:57pm, STATIC, random_15, true, LEFT, 2258, 0, 0, 0, 0
21,2018-07-29 03:46:59pm, STATIC, random_15, true, LEFT, 2440, 1, 0, 1, 0
22,2018-07-29 03:47:01pm, STATIC, random_15, true, LEFT, 2481, 0, 0, 0, 0
23,2018-07-29 03:47:03pm, STATIC, random_15, true, LEFT, 2369, 0, 0, 0, 0
24,2018-07-29 03:47:07pm, STATIC, random_15, true, LEFT, 3520, 0, 0, 0, 0
25,2018-07-29 03:47:09pm, STATIC, random_15, true, LEFT, 2417, 1, 0, 1, 0
26,2018-07-29 03:47:14pm, STATIC, random_15, true, LEFT, 4049, 0, 0, 0, 0
27,2018-07-29 03:47:16pm, STATIC, random_15, true, LEFT, 2277, 0, 1, 0, 1
28,2018-07-29 03:47:18pm, STATIC, random_15, true, LEFT, 2304, 0, 0, 0, 0
29,2018-07-29 03:47:20pm, STATIC, random_15, true, LEFT, 2329, 1, 0, 1, 0
30,2018-07-29 03:47:23pm, STATIC, random_15, true, LEFT, 2507, 0, 1, 0, 1
31,2018-07-29 03:47:25pm, STATIC, random_15, true, LEFT, 2300, 0, 1, 0, 1
32,2018-07-29 03:47:28pm, STATIC, random_15, true, LEFT, 2465, 0, 0, 0, 0
33,2018-07-29 03:47:30pm, STATIC, random_15, true, LEFT, 2331, 0, 1, 0, 1
34,2018-07-29 03:47:33pm, STATIC, random_15, true, LEFT, 2430, 0, 0, 0, 0
35,2018-07-29 03:47:35pm, STATIC, random_15, true, LEFT, 2474, 0, 0, 0, 0
36,2018-07-29 03:47:38pm, STATIC, random_15, true, LEFT, 2631, 0, 0, 0, 0
37,2018-07-29 03:47:43pm, STATIC, random_15, true, LEFT, 5184, 0, 1, 0, 1
38,2018-07-29 03:47:45pm, STATIC, random_15, false, RIGHT, 2415, 0, 1, 1, 0
39,2018-07-29 03:47:48pm, STATIC, random_15, true, LEFT, 2711, 0, 0, 0, 0
40,2018-07-29 03:47:50pm, STATIC, random_15, true, LEFT, 2338, 1, 1, 1, 1
41,2018-07-29 03:47:53pm, STATIC, random_15, true, LEFT, 2683, 1, 1, 1, 1
42,2018-07-29 03:47:55pm, STATIC, random_15, true, LEFT, 2500, 1, 0, 1, 0
43,2018-07-29 03:47:58pm, STATIC, random_15, true, LEFT, 2469, 0, 1, 0, 1
44,2018-07-29 03:48:00pm, STATIC, random_15, true, LEFT, 2365, 1, 0, 1, 0
45,2018-07-29 03:48:03pm, STATIC, random_15, true, LEFT, 2951, 0, 1, 0, 1
46,2018-07-29 03:48:05pm, STATIC, random_15, true, LEFT, 2346, 0, 0, 0, 0
47,2018-07-29 03:48:08pm, STATIC, random_15, true, LEFT, 2320, 0, 0, 0, 0
48,2018-07-29 03:48:10pm, STATIC, random_15, true, LEFT, 2283, 1, 0, 1, 0
49,2018-07-29 03:48:13pm, STATIC, random_15, true, LEFT, 2331, 0, 0, 0, 0
50,2018-07-29 03:48:15pm, STATIC, random_15, true, LEFT, 2602, 0, 1, 0, 1
51,2018-07-29 03:48:18pm, STATIC, random_15, true, LEFT, 2453, 0, 0, 0, 0
52,2018-07-29 03:48:20pm, STATIC, random_15, true, LEFT, 2563, 0, 0, 0, 0
53,2018-07-29 03:48:23pm, STATIC, random_15, true, LEFT, 2251, 0, 1, 0, 1
54,2018-07-29 03:48:25pm, STATIC, random_15, true, LEFT, 2283, 1, 1, 1, 1
55,2018-07-29 03:48:27pm, STATIC, random_15, true, LEFT, 2402, 0, 0, 0, 0
56,2018-07-29 03:48:30pm, STATIC, random_15, true, LEFT, 2733, 0, 0, 0, 0
57,2018-07-29 03:48:33pm, STATIC, random_15, true, LEFT, 2616, 0, 1, 0, 1
58,2018-07-29 03:48:35pm, STATIC, random_15, true, LEFT, 2780, 0, 0, 0, 0
59,2018-07-29 03:48:38pm, STATIC, random_15, true, LEFT, 2656, 1, 0, 1, 0
60,2018-07-29 03:48:40pm, STATIC, random_15, true, LEFT, 2626, 0, 0, 0, 0
61,2018-07-29 03:48:43pm, STATIC, random_15, true, LEFT, 2419, 1, 1, 1, 1
62,2018-07-29 03:48:45pm, STATIC, random_15, true, LEFT, 2352, 0, 0, 0, 0
63,2018-07-29 03:48:48pm, STATIC, random_15, true, LEFT, 2283, 0, 0, 0, 0
64,2018-07-29 03:48:51pm, STATIC, random_15, true, LEFT, 3064, 0, 0, 0, 0
65,2018-07-29 03:48:53pm, STATIC, random_15, true, LEFT, 2585, 0, 0, 0, 0
66,2018-07-29 03:48:56pm, STATIC, random_15, true, LEFT, 2437, 0, 0, 0, 0
67,2018-07-29 03:48:58pm, STATIC, random_15, true, LEFT, 2496, 1, 0, 1, 0
68,2018-07-29 03:49:02pm, STATIC, random_15, true, LEFT, 3481, 0, 0, 0, 0
69,2018-07-29 03:49:04pm, STATIC, random_15, true, LEFT, 2568, 1, 0, 1, 0
70,2018-07-29 03:49:07pm, STATIC, random_15, true, LEFT, 2301, 0, 1, 0, 1
71,2018-07-29 03:49:09pm, STATIC, random_15, true, LEFT, 2526, 0, 0, 0, 0
72,2018-07-29 03:49:11pm, STATIC, random_15, true, LEFT, 2323, 0, 0, 0, 0
73,2018-07-29 03:49:14pm, STATIC, random_15, true, LEFT, 2299, 0, 0, 0, 0
74,2018-07-29 03:49:16pm, STATIC, random_15, true, LEFT, 2302, 0, 0, 0, 0
75,2018-07-29 03:49:19pm, STATIC, random_15, true, LEFT, 2648, 0, 0, 0, 0
76,2018-07-29 03:49:21pm, STATIC, random_15, true, LEFT, 2350, 0, 1, 0, 1
77,2018-07-29 03:49:23pm, STATIC, random_15, true, LEFT, 2366, 1, 0, 1, 0
78,2018-07-29 03:49:26pm, STATIC, random_15, true, LEFT, 2369, 0, 0, 0, 0
79,2018-07-29 03:49:28pm, STATIC, random_15, true, LEFT, 2565, 0, 0, 0, 0
80,2018-07-29 03:49:31pm, STATIC, random_15, true, LEFT, 2449, 0, 1, 0, 1
81,2018-07-29 03:49:33pm, STATIC, random_15, true, LEFT, 2301, 1, 0, 1, 0
82,2018-07-29 03:49:36pm, STATIC, random_15, true, LEFT, 2746, 1, 0, 1, 0
83,2018-07-29 03:49:39pm, STATIC, random_15, true, LEFT, 2871, 0, 0, 0, 0
84,2018-07-29 03:49:41pm, STATIC, random_15, true, LEFT, 2668, 1, 1, 1, 1
85,2018-07-29 03:49:45pm, STATIC, random_15, true, LEFT, 2981, 0, 0, 0, 0
86,2018-07-29 03:49:47pm, STATIC, random_15, true, LEFT, 2566, 0, 1, 0, 1
87,2018-07-29 03:49:49pm, STATIC, random_15, true, LEFT, 2301, 0, 0, 0, 0
88,2018-07-29 03:49:51pm, STATIC, random_15, true, LEFT, 2318, 0, 0, 0, 0
89,2018-07-29 03:49:54pm, STATIC, random_15, true, LEFT, 2314, 0, 0, 0, 0
90,2018-07-29 03:49:56pm, STATIC, random_15, true, LEFT, 2485, 0, 0, 0, 0
91,2018-07-29 03:49:59pm, STATIC, random_15, true, LEFT, 2382, 0, 0, 0, 0
92,2018-07-29 03:50:01pm, STATIC, random_15, true, LEFT, 2786, 1, 0, 1, 0
93,2018-07-29 03:50:04pm, STATIC, random_15, true, LEFT, 2813, 0, 1, 0, 1
94,2018-07-29 03:50:06pm, STATIC, random_15, true, LEFT, 2216, 0, 1, 0, 1
95,2018-07-29 03:50:09pm, STATIC, random_15, true, LEFT, 2303, 0, 0, 0, 0
96,2018-07-29 03:50:11pm, STATIC, random_15, true, LEFT, 2700, 0, 1, 0, 1
97,2018-07-29 03:50:14pm, STATIC, random_15, true, LEFT, 2281, 1, 0, 1, 0
98,2018-07-29 03:50:17pm, STATIC, random_15, true, LEFT, 3198, 0, 0, 0, 0
99,2018-07-29 03:50:19pm, STATIC, random_15, true, LEFT, 2502, 0, 0, 0, 0
