[{"RT":7590,"time": "2018-08-15 03:57:09pm", "schedule_type": "STATIC", "schedule_name": "random_15", "is_biased_choice":true,"side_choice": "LEFT", "trial_number":0,"observed_reward":0,"unobserved_reward":0},{"RT":5823,"time": "2018-08-15 03:57:14pm", "schedule_type": "STATIC", "schedule_name": "random_15", "is_biased_choice":false,"side_choice": "RIGHT", "trial_number":1,"observed_reward":0,"unobserved_reward":1},{"RT":4140,"time": "2018-08-15 03:57:19pm", "schedule_type": "STATIC", "schedule_name": "random_15", "is_biased_choice":true,"side_choice": "LEFT", "trial_number":2,"observed_reward":0,"unobserved_reward":1},{"RT":3066,"time": "2018-08-15 03:57:22pm", "schedule_type": "STATIC", "schedule_name": "random_15", "is_biased_choice":true,"side_choice": "LEFT", "trial_number":3,"observed_reward":0,"unobserved_reward":1},{"RT":3249,"time": "2018-08-15 03:57:25pm", "schedule_type": "STATIC", "schedule_name": "random_15", "is_biased_choice":true,"side_choice": "LEFT", "trial_number":4,"observed_reward":1,"unobserved_reward":0},{"RT":3024,"time": "2018-08-15 03:57:28pm", "schedule_type": "STATIC", "schedule_name": "random_15", "is_biased_choice":true,"side_choice": "LEFT", "trial_number":5,"observed_reward":1,"unobserved_reward":0},{"RT":2806,"time": "2018-08-15 03:57:31pm", "schedule_type": "STATIC", "schedule_name": "random_15", "is_biased_choice":true,"side_choice": "LEFT", "trial_number":6,"observed_reward":0,"unobserved_reward":0},{"RT":2928,"time": "2018-08-15 03:57:34pm", "schedule_type": "STATIC", "schedule_name": "random_15", "is_biased_choice":true,"side_choice": "LEFT", "trial_number":7,"observed_reward":0,"unobserved_reward":0},{"RT":2736,"time": "2018-08-15 03:57:36pm", "schedule_type": "STATIC", "schedule_name": "random_15", "is_biased_choice":true,"side_choice": "LEFT", "trial_number":8,"observed_reward":1,"unobserved_reward":0},{"RT":2608,"time": "2018-08-15 03:57:39pm", "schedule_type": "STATIC", "schedule_name": "random_15", "is_biased_choice":true,"side_choice": "LEFT", "trial_number":9,"observed_reward":0,"unobserved_reward":0},{"RT":3616,"time": "2018-08-15 03:57:43pm", "schedule_type": "STATIC", "schedule_name": "random_15", "is_biased_choice":true,"side_choice": "LEFT", "trial_number":10,"observed_reward":1,"unobserved_reward":0},{"RT":3168,"time": "2018-08-15 03:57:46pm", "schedule_type": "STATIC", "schedule_name": "random_15", "is_biased_choice":true,"side_choice": "LEFT", "trial_number":11,"observed_reward":0,"unobserved_reward":0},{"RT":4289,"time": "2018-08-15 03:57:50pm", "schedule_type": "STATIC", "schedule_name": "random_15", "is_biased_choice":true,"side_choice": "LEFT", "trial_number":12,"observed_reward":0,"unobserved_reward":0},{"RT":4639,"time": "2018-08-15 03:57:55pm", "schedule_type": "STATIC", "schedule_name": "random_15", "is_biased_choice":true,"side_choice": "LEFT", "trial_number":13,"observed_reward":0,"unobserved_reward":0},{"RT":3583,"time": "2018-08-15 03:57:58pm", "schedule_type": "STATIC", "schedule_name": "random_15", "is_biased_choice":true,"side_choice": "LEFT", "trial_number":14,"observed_reward":0,"unobserved_reward":0},{"RT":3488,"time": "2018-08-15 03:58:02pm", "schedule_type": "STATIC", "schedule_name": "random_15", "is_biased_choice":true,"side_choice": "LEFT", "trial_number":15,"observed_reward":0,"unobserved_reward":0},{"RT":5097,"time": "2018-08-15 03:58:07pm", "schedule_type": "STATIC", "schedule_name": "random_15", "is_biased_choice":true,"side_choice": "LEFT", "trial_number":16,"observed_reward":0,"unobserved_reward":0},{"RT":3639,"time": "2018-08-15 03:58:11pm", "schedule_type": "STATIC", "schedule_name": "random_15", "is_biased_choice":true,"side_choice": "LEFT", "trial_number":17,"observed_reward":0,"unobserved_reward":0},{"RT":4818,"time": "2018-08-15 03:58:15pm", "schedule_type": "STATIC", "schedule_name": "random_15", "is_biased_choice":false,"side_choice": "RIGHT", "trial_number":18,"observed_reward":1,"unobserved_reward":0},{"RT":3127,"time": "2018-08-15 03:58:19pm", "schedule_type": "STATIC", "schedule_name": "random_15", "is_biased_choice":false,"side_choice": "RIGHT", "trial_number":19,"observed_reward":0,"unobserved_reward":0},{"RT":3360,"time": "2018-08-15 03:58:22pm", "schedule_type": "STATIC", "schedule_name": "random_15", "is_biased_choice":false,"side_choice": "RIGHT", "trial_number":20,"observed_reward":0,"unobserved_reward":0},{"RT":3295,"time": "2018-08-15 03:58:25pm", "schedule_type": "STATIC", "schedule_name": "random_15", "is_biased_choice":false,"side_choice": "RIGHT", "trial_number":21,"observed_reward":0,"unobserved_reward":1},{"RT":3513,"time": "2018-08-15 03:58:29pm", "schedule_type": "STATIC", "schedule_name": "random_15", "is_biased_choice":true,"side_choice": "LEFT", "trial_number":22,"observed_reward":0,"unobserved_reward":0},{"RT":3241,"time": "2018-08-15 03:58:32pm", "schedule_type": "STATIC", "schedule_name": "random_15", "is_biased_choice":false,"side_choice": "RIGHT", "trial_number":23,"observed_reward":0,"unobserved_reward":0},{"RT":4239,"time": "2018-08-15 03:58:36pm", "schedule_type": "STATIC", "schedule_name": "random_15", "is_biased_choice":false,"side_choice": "RIGHT", "trial_number":24,"observed_reward":0,"unobserved_reward":0},{"RT":2887,"time": "2018-08-15 03:58:39pm", "schedule_type": "STATIC", "schedule_name": "random_15", "is_biased_choice":true,"side_choice": "LEFT", "trial_number":25,"observed_reward":1,"unobserved_reward":0},{"RT":2608,"time": "2018-08-15 03:58:42pm", "schedule_type": "STATIC", "schedule_name": "random_15", "is_biased_choice":true,"side_choice": "LEFT", "trial_number":26,"observed_reward":0,"unobserved_reward":0},{"RT":2897,"time": "2018-08-15 03:58:45pm", "schedule_type": "STATIC", "schedule_name": "random_15", "is_biased_choice":false,"side_choice": "RIGHT", "trial_number":27,"observed_reward":1,"unobserved_reward":0},{"RT":2650,"time": "2018-08-15 03:58:47pm", "schedule_type": "STATIC", "schedule_name": "random_15", "is_biased_choice":false,"side_choice": "RIGHT", "trial_number":28,"observed_reward":0,"unobserved_reward":0},{"RT":3604,"time": "2018-08-15 03:58:51pm", "schedule_type": "STATIC", "schedule_name": "random_15", "is_biased_choice":true,"side_choice": "LEFT", "trial_number":29,"observed_reward":1,"unobserved_reward":0},{"RT":3209,"time": "2018-08-15 03:58:54pm", "schedule_type": "STATIC", "schedule_name": "random_15", "is_biased_choice":true,"side_choice": "LEFT", "trial_number":30,"observed_reward":0,"unobserved_reward":1},{"RT":3456,"time": "2018-08-15 03:58:57pm", "schedule_type": "STATIC", "schedule_name": "random_15", "is_biased_choice":false,"side_choice": "RIGHT", "trial_number":31,"observed_reward":1,"unobserved_reward":0},{"RT":2799,"time": "2018-08-15 03:59:00pm", "schedule_type": "STATIC", "schedule_name": "random_15", "is_biased_choice":false,"side_choice": "RIGHT", "trial_number":32,"observed_reward":0,"unobserved_reward":0},{"RT":2960,"time": "2018-08-15 03:59:03pm", "schedule_type": "STATIC", "schedule_name": "random_15", "is_biased_choice":true,"side_choice": "LEFT", "trial_number":33,"observed_reward":0,"unobserved_reward":1},{"RT":2911,"time": "2018-08-15 03:59:06pm", "schedule_type": "STATIC", "schedule_name": "random_15", "is_biased_choice":false,"side_choice": "RIGHT", "trial_number":34,"observed_reward":0,"unobserved_reward":0},{"RT":2841,"time": "2018-08-15 03:59:09pm", "schedule_type": "STATIC", "schedule_name": "random_15", "is_biased_choice":true,"side_choice": "LEFT", "trial_number":35,"observed_reward":0,"unobserved_reward":0},{"RT":3487,"time": "2018-08-15 03:59:12pm", "schedule_type": "STATIC", "schedule_name": "random_15", "is_biased_choice":true,"side_choice": "LEFT", "trial_number":36,"observed_reward":0,"unobserved_reward":0},{"RT":2547,"time": "2018-08-15 03:59:15pm", "schedule_type": "STATIC", "schedule_name": "random_15", "is_biased_choice":false,"side_choice": "RIGHT", "trial_number":37,"observed_reward":1,"unobserved_reward":0},{"RT":3102,"time": "2018-08-15 03:59:18pm", "schedule_type": "STATIC", "schedule_name": "random_15", "is_biased_choice":true,"side_choice": "LEFT", "trial_number":38,"observed_reward":1,"unobserved_reward":0},{"RT":3673,"time": "2018-08-15 03:59:22pm", "schedule_type": "STATIC", "schedule_name": "random_15", "is_biased_choice":false,"side_choice": "RIGHT", "trial_number":39,"observed_reward":0,"unobserved_reward":0},{"RT":45046,"time": "2018-08-15 04:00:07pm", "schedule_type": "STATIC", "schedule_name": "random_15", "is_biased_choice":false,"side_choice": "RIGHT", "trial_number":40,"observed_reward":1,"unobserved_reward":1},{"RT":3521,"time": "2018-08-15 04:00:10pm", "schedule_type": "STATIC", "schedule_name": "random_15", "is_biased_choice":true,"side_choice": "LEFT", "trial_number":41,"observed_reward":1,"unobserved_reward":1},{"RT":2864,"time": "2018-08-15 04:00:13pm", "schedule_type": "STATIC", "schedule_name": "random_15", "is_biased_choice":false,"side_choice": "RIGHT", "trial_number":42,"observed_reward":0,"unobserved_reward":1},{"RT":2735,"time": "2018-08-15 04:00:16pm", "schedule_type": "STATIC", "schedule_name": "random_15", "is_biased_choice":true,"side_choice": "LEFT", "trial_number":43,"observed_reward":0,"unobserved_reward":1},{"RT":2872,"time": "2018-08-15 04:00:19pm", "schedule_type": "STATIC", "schedule_name": "random_15", "is_biased_choice":false,"side_choice": "RIGHT", "trial_number":44,"observed_reward":0,"unobserved_reward":1},{"RT":3064,"time": "2018-08-15 04:00:22pm", "schedule_type": "STATIC", "schedule_name": "random_15", "is_biased_choice":true,"side_choice": "LEFT", "trial_number":45,"observed_reward":0,"unobserved_reward":1},{"RT":2624,"time": "2018-08-15 04:00:25pm", "schedule_type": "STATIC", "schedule_name": "random_15", "is_biased_choice":false,"side_choice": "RIGHT", "trial_number":46,"observed_reward":0,"unobserved_reward":0},{"RT":3241,"time": "2018-08-15 04:00:28pm", "schedule_type": "STATIC", "schedule_name": "random_15", "is_biased_choice":true,"side_choice": "LEFT", "trial_number":47,"observed_reward":0,"unobserved_reward":0},{"RT":2775,"time": "2018-08-15 04:00:30pm", "schedule_type": "STATIC", "schedule_name": "random_15", "is_biased_choice":true,"side_choice": "LEFT", "trial_number":48,"observed_reward":1,"unobserved_reward":0},{"RT":3240,"time": "2018-08-15 04:00:34pm", "schedule_type": "STATIC", "schedule_name": "random_15", "is_biased_choice":false,"side_choice": "RIGHT", "trial_number":49,"observed_reward":0,"unobserved_reward":0},{"RT":2888,"time": "2018-08-15 04:00:37pm", "schedule_type": "STATIC", "schedule_name": "random_15", "is_biased_choice":true,"side_choice": "LEFT", "trial_number":50,"observed_reward":0,"unobserved_reward":1},{"RT":2840,"time": "2018-08-15 04:00:39pm", "schedule_type": "STATIC", "schedule_name": "random_15", "is_biased_choice":false,"side_choice": "RIGHT", "trial_number":51,"observed_reward":0,"unobserved_reward":0},{"RT":3391,"time": "2018-08-15 04:00:43pm", "schedule_type": "STATIC", "schedule_name": "random_15", "is_biased_choice":true,"side_choice": "LEFT", "trial_number":52,"observed_reward":0,"unobserved_reward":0},