[{"RT":39871,"time": "2018-08-15 03:28:00pm", "schedule_type": "STATIC", "schedule_name": "random_15", "is_biased_choice":false,"side_choice": "LEFT", "trial_number":0,"observed_reward":0,"unobserved_reward":0},{"RT":5183,"time": "2018-08-15 03:28:05pm", "schedule_type": "STATIC", "schedule_name": "random_15", "is_biased_choice":true,"side_choice": "RIGHT", "trial_number":1,"observed_reward":1,"unobserved_reward":0},{"RT":21479,"time": "2018-08-15 03:28:27pm", "schedule_type": "STATIC", "schedule_name": "random_15", "is_biased_choice":false,"side_choice": "LEFT", "trial_number":2,"observed_reward":1,"unobserved_reward":0},{"RT":4712,"time": "2018-08-15 03:28:31pm", "schedule_type": "STATIC", "schedule_name": "random_15", "is_biased_choice":true,"side_choice": "RIGHT", "trial_number":3,"observed_reward":0,"unobserved_reward":1},{"RT":5497,"time": "2018-08-15 03:28:37pm", "schedule_type": "STATIC", "schedule_name": "random_15", "is_biased_choice":false,"side_choice": "LEFT", "trial_number":4,"observed_reward":0,"unobserved_reward":1},{"RT":4296,"time": "2018-08-15 03:28:41pm", "schedule_type": "STATIC", "schedule_name": "random_15", "is_biased_choice":true,"side_choice": "RIGHT", "trial_number":5,"observed_reward":1,"unobserved_reward":0},{"RT":4072,"time": "2018-08-15 03:28:45pm", "schedule_type": "STATIC", "schedule_name": "random_15", "is_biased_choice":false,"side_choice": "LEFT", "trial_number":6,"observed_reward":0,"unobserved_reward":0},{"RT":7631,"time": "2018-08-15 03:28:53pm", "schedule_type": "STATIC", "schedule_name": "random_15", "is_biased_choice":true,"side_choice": "RIGHT", "trial_number":7,"observed_reward":0,"unobserved_reward":0},{"RT":4424,"time": "2018-08-15 03:28:57pm", "schedule_type": "STATIC", "schedule_name": "random_15", "is_biased_choice":true,"side_choice": "RIGHT", "trial_number":8,"observed_reward":1,"unobserved_reward":0},{"RT":3715,"time": "2018-08-15 03:29:01pm", "schedule_type": "STATIC", "schedule_name": "random_15", "is_biased_choice":false,"side_choice": "LEFT", "trial_number":9,"observed_reward":0,"unobserved_reward":0},{"RT":3790,"time": "2018-08-15 03:29:05pm", "schedule_type": "STATIC", "schedule_name": "random_15", "is_biased_choice":true,"side_choice": "RIGHT", "trial_number":10,"observed_reward":1,"unobserved_reward":0},{"RT":4505,"time": "2018-08-15 03:29:09pm", "schedule_type": "STATIC", "schedule_name": "random_15", "is_biased_choice":false,"side_choice": "LEFT", "trial_number":11,"observed_reward":0,"unobserved_reward":0},{"RT":3680,"time": "2018-08-15 03:29:15pm", "schedule_type": "STATIC", "schedule_name": "random_15", "is_biased_choice":true,"side_choice": "RIGHT", "trial_number":12,"observed_reward":0,"unobserved_reward":0},{"RT":5031,"time": "2018-08-15 03:29:18pm", "schedule_type": "STATIC", "schedule_name": "random_15", "is_biased_choice":false,"side_choice": "LEFT", "trial_number":13,"observed_reward":0,"unobserved_reward":0},{"RT":4488,"time": "2018-08-15 03:29:23pm", "schedule_type": "STATIC", "schedule_name": "random_15", "is_biased_choice":true,"side_choice": "RIGHT", "trial_number":14,"observed_reward":0,"unobserved_reward":0},{"RT":3559,"time": "2018-08-15 03:29:26pm", "schedule_type": "STATIC", "schedule_name": "random_15", "is_biased_choice":true,"side_choice": "RIGHT", "trial_number":15,"observed_reward":0,"unobserved_reward":0},{"RT":3621,"time": "2018-08-15 03:29:30pm", "schedule_type": "STATIC", "schedule_name": "random_15", "is_biased_choice":true,"side_choice": "RIGHT", "trial_number":16,"observed_reward":0,"unobserved_reward":0},{"RT":4523,"time": "2018-08-15 03:29:34pm", "schedule_type": "STATIC", "schedule_name": "random_15", "is_biased_choice":true,"side_choice": "RIGHT", "trial_number":17,"observed_reward":0,"unobserved_reward":0},{"RT":5112,"time": "2018-08-15 03:29:39pm", "schedule_type": "STATIC", "schedule_name": "random_15", "is_biased_choice":false,"side_choice": "LEFT", "trial_number":18,"observed_reward":1,"unobserved_reward":0},{"RT":3752,"time": "2018-08-15 03:29:43pm", "schedule_type": "STATIC", "schedule_name": "random_15", "is_biased_choice":true,"side_choice": "RIGHT", "trial_number":19,"observed_reward":0,"unobserved_reward":0},{"RT":3710,"time": "2018-08-15 03:29:47pm", "schedule_type": "STATIC", "schedule_name": "random_15", "is_biased_choice":false,"side_choice": "LEFT", "trial_number":20,"observed_reward":0,"unobserved_reward":0},{"RT":3858,"time": "2018-08-15 03:29:51pm", "schedule_type": "STATIC", "schedule_name": "random_15", "is_biased_choice":true,"side_choice": "RIGHT", "trial_number":21,"observed_reward":1,"unobserved_reward":0},{"RT":3768,"time": "2018-08-15 03:29:54pm", "schedule_type": "STATIC", "schedule_name": "random_15", "is_biased_choice":false,"side_choice": "LEFT", "trial_number":22,"observed_reward":0,"unobserved_reward":0},{"RT":3457,"time": "2018-08-15 03:29:58pm", "schedule_type": "STATIC", "schedule_name": "random_15", "is_biased_choice":true,"side_choice": "RIGHT", "trial_number":23,"observed_reward":0,"unobserved_reward":0},{"RT":3233,"time": "2018-08-15 03:30:01pm", "schedule_type": "STATIC", "schedule_name": "random_15", "is_biased_choice":false,"side_choice": "LEFT", "trial_number":24,"observed_reward":0,"unobserved_reward":0},{"RT":4220,"time": "2018-08-15 03:30:05pm", "schedule_type": "STATIC", "schedule_name": "random_15", "is_biased_choice":true,"side_choice": "RIGHT", "trial_number":25,"observed_reward":1,"unobserved_reward":0},{"RT":3891,"time": "2018-08-15 03:30:09pm", "schedule_type": "STATIC", "schedule_name": "random_15", "is_biased_choice":true,"side_choice": "RIGHT", "trial_number":26,"observed_reward":0,"unobserved_reward":0},{"RT":3314,"time": "2018-08-15 03:30:13pm", "schedule_type": "STATIC", "schedule_name": "random_15", "is_biased_choice":false,"side_choice": "LEFT", "trial_number":27,"observed_reward":1,"unobserved_reward":0},{"RT":3397,"time": "2018-08-15 03:30:16pm", "schedule_type": "STATIC", "schedule_name": "random_15", "is_biased_choice":true,"side_choice": "RIGHT", "trial_number":28,"observed_reward":0,"unobserved_reward":0},{"RT":3177,"time": "2018-08-15 03:30:19pm", "schedule_type": "STATIC", "schedule_name": "random_15", "is_biased_choice":false,"side_choice": "LEFT", "trial_number":29,"observed_reward":0,"unobserved_reward":1},{"RT":3534,"time": "2018-08-15 03:30:23pm", "schedule_type": "STATIC", "schedule_name": "random_15", "is_biased_choice":true,"side_choice": "RIGHT", "trial_number":30,"observed_reward":0,"unobserved_reward":1},{"RT":3026,"time": "2018-08-15 03:30:26pm", "schedule_type": "STATIC", "schedule_name": "random_15", "is_biased_choice":false,"side_choice": "LEFT", "trial_number":31,"observed_reward":1,"unobserved_reward":0},{"RT":3825,"time": "2018-08-15 03:30:29pm", "schedule_type": "STATIC", "schedule_name": "random_15", "is_biased_choice":true,"side_choice": "RIGHT", "trial_number":32,"observed_reward":0,"unobserved_reward":0},{"RT":3576,"time": "2018-08-15 03:30:33pm", "schedule_type": "STATIC", "schedule_name": "random_15", "is_biased_choice":false,"side_choice": "LEFT", "trial_number":33,"observed_reward":1,"unobserved_reward":0},{"RT":5086,"time": "2018-08-15 03:30:38pm", "schedule_type": "STATIC", "schedule_name": "random_15", "is_biased_choice":false,"side_choice": "LEFT", "trial_number":34,"observed_reward":0,"unobserved_reward":0},{"RT":3486,"time": "2018-08-15 03:30:42pm", "schedule_type": "STATIC", "schedule_name": "random_15", "is_biased_choice":true,"side_choice": "RIGHT", "trial_number":35,"observed_reward":0,"unobserved_reward":0},{"RT":4316,"time": "2018-08-15 03:30:46pm", "schedule_type": "STATIC", "schedule_name": "random_15", "is_biased_choice":false,"side_choice": "LEFT", "trial_number":36,"observed_reward":0,"unobserved_reward":0},{"RT":4150,"time": "2018-08-15 03:30:50pm", "schedule_type": "STATIC", "schedule_name": "random_15", "is_biased_choice":true,"side_choice": "RIGHT", "trial_number":37,"observed_reward":0,"unobserved_reward":1},{"RT":3657,"time": "2018-08-15 03:30:54pm", "schedule_type": "STATIC", "schedule_name": "random_15", "is_biased_choice":false,"side_choice": "LEFT", "trial_number":38,"observed_reward":0,"unobserved_reward":1},{"RT":3900,"time": "2018-08-15 03:30:58pm", "schedule_type": "STATIC", "schedule_name": "random_15", "is_biased_choice":true,"side_choice": "RIGHT", "trial_number":39,"observed_reward":0,"unobserved_reward":0},{"RT":6547,"time": "2018-08-15 03:31:04pm", "schedule_type": "STATIC", "schedule_name": "random_15", "is_biased_choice":false,"side_choice": "LEFT", "trial_number":40,"observed_reward":1,"unobserved_reward":1},{"RT":3817,"time": "2018-08-15 03:31:08pm", "schedule_type": "STATIC", "schedule_name": "random_15", "is_biased_choice":true,"side_choice": "RIGHT", "trial_number":41,"observed_reward":1,"unobserved_reward":1},{"RT":3905,"time": "2018-08-15 03:31:12pm", "schedule_type": "STATIC", "schedule_name": "random_15", "is_biased_choice":false,"side_choice": "LEFT", "trial_number":42,"observed_reward":0,"unobserved_reward":1},{"RT":4444,"time": "2018-08-15 03:31:16pm", "schedule_type": "STATIC", "schedule_name": "random_15", "is_biased_choice":true,"side_choice": "RIGHT", "trial_number":43,"observed_reward":0,"unobserved_reward":1},{"RT":4298,"time": "2018-08-15 03:31:21pm", "schedule_type": "STATIC", "schedule_name": "random_15", "is_biased_choice":false,"side_choice": "LEFT", "trial_number":44,"observed_reward":0,"unobserved_reward":1},{"RT":4062,"time": "2018-08-15 03:31:25pm", "schedule_type": "STATIC", "schedule_name": "random_15", "is_biased_choice":true,"side_choice": "RIGHT", "trial_number":45,"observed_reward":0,"unobserved_reward":1},{"RT":4394,"time": "2018-08-15 03:31:29pm", "schedule_type": "STATIC", "schedule_name": "random_15", "is_biased_choice":true,"side_choice": "RIGHT", "trial_number":46,"observed_reward":0,"unobserved_reward":0},{"RT":3850,"time": "2018-08-15 03:31:33pm", "schedule_type": "STATIC", "schedule_name": "random_15", "is_biased_choice":false,"side_choice": "LEFT", "trial_number":47,"observed_reward":0,"unobserved_reward":0},{"RT":3518,"time": "2018-08-15 03:31:36pm", "schedule_type": "STATIC", "schedule_name": "random_15", "is_biased_choice":true,"side_choice": "RIGHT", "trial_number":48,"observed_reward":1,"unobserved_reward":0},{"RT":3761,"time": "2018-08-15 03:31:40pm", "schedule_type": "STATIC", "schedule_name": "random_15", "is_biased_choice":true,"side_choice": "RIGHT", "trial_number":49,"observed_reward":0,"unobserved_reward":0},{"RT":3310,"time": "2018-08-15 03:31:44pm", "schedule_type": "STATIC", "schedule_name": "random_15", "is_biased_choice":false,"side_choice": "LEFT", "trial_number":50,"observed_reward":1,"unobserved_reward":0},{"RT":3548,"time": "2018-08-15 03:31:47pm", "schedule_type": "STATIC", "schedule_name": "random_15", "is_biased_choice":false,"side_choice": "LEFT", "trial_number":51,"observed_reward":0,"unobserved_reward":0},{"RT":3158,"time": "2018-08-15 03:31:50pm", "schedule_type": "STATIC", "schedule_name": "random_15", "is_biased_choice":true,"side_choice": "RIGHT", "trial_number":52,"observed_reward":0,"unobserved_reward":0},{"RT":5607,"time": "2018-08-15 03:31:56pm", "schedule_type": "STATIC", "schedule_name": "random_15", "is_biased_choice":false,"side_choice": "LEFT", "trial_number":53,"observed_reward":1,"unobserved_reward":0},{"RT":3472,"time": "2018-08-15 03:31:59pm", "schedule_type": "STATIC", "schedule_name": "random_15", "is_biased_choice":false,"side_choice": "LEFT", "trial_number":54,"observed_reward":1,"unobserved_reward":1},{"RT":3626,"time": "2018-08-15 03:32:03pm", "schedule_type": "STATIC", "schedule_name": "random_15", "is_biased_choice":true,"side_choice": "RIGHT", "trial_number":55,"observed_reward":0,"unobserved_reward":0},{"RT":4118,"time": "2018-08-15 03:32:07pm", "schedule_type": "STATIC", "schedule_name": "random_15", "is_biased_choice":false,"side_choice": "LEFT", "trial_number":56,"observed_reward":0,"unobserved_reward":0},{"RT":3921,"time": "2018-08-15 03:32:11pm", "schedule_type": "STATIC", "schedule_name": "random_15", "is_biased_choice":true,"side_choice": "RIGHT", "trial_number":57,"observed_reward":0,"unobserved_reward":1},{"RT":3578,"time": "2018-08-15 03:32:15pm", "schedule_type": "STATIC", "schedule_name": "random_15", "is_biased_choice":false,"side_choice": "LEFT", "trial_number":58,"observed_reward":0,"unobserved_reward":0},{"RT":3958,"time": "2018-08-15 03:32:19pm", "schedule_type": "STATIC", "schedule_name": "random_15", "is_biased_choice":true,"side_choice": "RIGHT", "trial_number":59,"observed_reward":1,"unobserved_reward":0},{"RT":3879,"time": "2018-08-15 03:32:22pm", "schedule_type": "STATIC", "schedule_name": "random_15", "is_biased_choice":true,"side_choice": "RIGHT", "trial_number":60,"observed_reward":0,"unobserved_reward":0},{"RT":3641,"time": "2018-08-15 03:32:26pm", "schedule_type": "STATIC", "schedule_name": "random_15", "is_biased_choice":false,"side_choice": "LEFT", "trial_number":61,"observed_reward":1,"unobserved_reward":1},{"RT":3489,"time": "2018-08-15 03:32:30pm", "schedule_type": "STATIC", "schedule_name": "random_15", "is_biased_choice":false,"side_choice": "LEFT", "trial_number":62,"observed_reward":0,"unobserved_reward":0},{"RT":3679,"time": "2018-08-15 03:32:33pm", "schedule_type": "STATIC", "schedule_name": "random_15", "is_biased_choice":true,"side_choice": "RIGHT", "trial_number":63,"observed_reward":0,"unobserved_reward":0},{"RT":2863,"time": "2018-08-15 03:32:36pm", "schedule_type": "STATIC", "schedule_name": "random_15", "is_biased_choice":false,"side_choice": "LEFT", "trial_number":64,"observed_reward":0,"unobserved_reward":0},{"RT":7714,"time": "2018-08-15 03:32:44pm", "schedule_type": "STATIC", "schedule_name": "random_15", "is_biased_choice":true,"side_choice": "RIGHT", "trial_number":65,"observed_reward":0,"unobserved_reward":0},{"RT":3630,"time": "2018-08-15 03:32:47pm", "schedule_type": "STATIC", "schedule_name": "random_15", "is_biased_choice":false,"side_choice": "LEFT", "trial_number":66,"observed_reward":0,"unobserved_reward":0},{"RT":4073,"time": "2018-08-15 03:32:52pm", "schedule_type": "STATIC", "schedule_name": "random_15", "is_biased_choice":true,"side_choice": "RIGHT", "trial_number":67,"observed_reward":1,"unobserved_reward":0},{"RT":12945,"time": "2018-08-15 03:33:04pm", "schedule_type": "STATIC", "schedule_name": "random_15", "is_biased_choice":false,"side_choice": "LEFT", "trial_number":68,"observed_reward":0,"unobserved_reward":0},{"RT":3626,"time": "2018-08-15 03:33:08pm", "schedule_type": "STATIC", "schedule_name": "random_15", "is_biased_choice":true,"side_choice": "RIGHT", "trial_number":69,"observed_reward":1,"unobserved_reward":0},{"RT":9461,"time": "2018-08-15 03:33:18pm", "schedule_type": "STATIC", "schedule_name": "random_15", "is_biased_choice":false,"side_choice": "LEFT", "trial_number":70,"observed_reward":1,"unobserved_reward":0},{"RT":25443,"time": "2018-08-15 03:33:43pm", "schedule_type": "STATIC", "schedule_name": "random_15", "is_biased_choice":false,"side_choice": "LEFT", "trial_number":71,"observed_reward":0,"unobserved_reward":0},{"RT":3919,"time": "2018-08-15 03:33:47pm", "schedule_type": "STATIC", "schedule_name": "random_15", "is_biased_choice":true,"side_choice": "RIGHT", "trial_number":72,"observed_reward":0,"unobserved_reward":0},{"RT":11264,"time": "2018-08-15 03:33:58pm", "schedule_type": "STATIC", "schedule_name": "random_15", "is_biased_choice":true,"side_choice": "RIGHT", "trial_number":73,"observed_reward":0,"unobserved_reward":0},{"RT":3312,"time": "2018-08-15 03:34:01pm", "schedule_type": "STATIC", "schedule_name": "random_15", "is_biased_choice":false,"side_choice": "LEFT", "trial_number":74,"observed_reward":0,"unobserved_reward":0},{"RT":4934,"time": "2018-08-15 03:34:06pm", "schedule_type": "STATIC", "schedule_name": "random_15", "is_biased_choice":true,"side_choice": "RIGHT", "trial_number":75,"observed_reward":0,"unobserved_reward":0},{"RT":8283,"time": "2018-08-15 03:34:15pm", "schedule_type": "STATIC", "schedule_name": "random_15", "is_biased_choice":false,"side_choice": "LEFT", "trial_number":76,"observed_reward":1,"unobserved_reward":0},{"RT":4820,"time": "2018-08-15 03:34:20pm", "schedule_type": "STATIC", "schedule_name": "random_15", "is_biased_choice":true,"side_choice": "RIGHT", "trial_number":77,"observed_reward":1,"unobserved_reward":0},{"RT":4489,"time": "2018-08-15 03:34:24pm", "schedule_type": "STATIC", "schedule_name": "random_15", "is_biased_choice":false,"side_choice": "LEFT", "trial_number":78,"observed_reward":0,"unobserved_reward":0},{"RT":6807,"time": "2018-08-15 03:34:31pm", "schedule_type": "STATIC", "schedule_name": "random_15", "is_biased_choice":true,"side_choice": "RIGHT", "trial_number":79,"observed_reward":0,"unobserved_reward":0},{"RT":4878,"time": "2018-08-15 03:34:36pm", "schedule_type": "STATIC", "schedule_name": "random_15", "is_biased_choice":false,"side_choice": "LEFT", "trial_number":80,"observed_reward":1,"unobserved_reward":0},{"RT":6298,"time": "2018-08-15 03:34:42pm", "schedule_type": "STATIC", "schedule_name": "random_15", "is_biased_choice":true,"side_choice": "RIGHT", "trial_number":81,"observed_reward":1,"unobserved_reward":0},{"RT":7401,"time": "2018-08-15 03:34:49pm", "schedule_type": "STATIC", "schedule_name": "random_15", "is_biased_choice":false,"side_choice": "LEFT", "trial_number":82,"observed_reward":0,"unobserved_reward":1},{"RT":3784,"time": "2018-08-15 03:34:53pm", "schedule_type": "STATIC", "schedule_name": "random_15", "is_biased_choice":true,"side_choice": "RIGHT", "trial_number":83,"observed_reward":0,"unobserved_reward":0},{"RT":4480,"time": "2018-08-15 03:34:58pm", "schedule_type": "STATIC", "schedule_name": "random_15", "is_biased_choice":false,"side_choice": "LEFT", "trial_number":84,"observed_reward":1,"unobserved_reward":1},{"RT":5167,"time": "2018-08-15 03:35:03pm", "schedule_type": "STATIC", "schedule_name": "random_15", "is_biased_choice":true,"side_choice": "RIGHT", "trial_number":85,"observed_reward":0,"unobserved_reward":0},{"RT":3602,"time": "2018-08-15 03:35:06pm", "schedule_type": "STATIC", "schedule_name": "random_15", "is_biased_choice":false,"side_choice": "LEFT", "trial_number":86,"observed_reward":1,"unobserved_reward":0},{"RT":3804,"time": "2018-08-15 03:35:10pm", "schedule_type": "STATIC", "schedule_name": "random_15", "is_biased_choice":true,"side_choice": "RIGHT", "trial_number":87,"observed_reward":0,"unobserved_reward":0},{"RT":3411,"time": "2018-08-15 03:35:14pm", "schedule_type": "STATIC", "schedule_name": "random_15", "is_biased_choice":false,"side_choice": "LEFT", "trial_number":88,"observed_reward":0,"unobserved_reward":0},{"RT":9208,"time": "2018-08-15 03:35:23pm", "schedule_type": "STATIC", "schedule_name": "random_15", "is_biased_choice":true,"side_choice": "RIGHT", "trial_number":89,"observed_reward":0,"unobserved_reward":0},{"RT":3450,"time": "2018-08-15 03:35:26pm", "schedule_type": "STATIC", "schedule_name": "random_15", "is_biased_choice":false,"side_choice": "LEFT", "trial_number":90,"observed_reward":0,"unobserved_reward":0},{"RT":4911,"time": "2018-08-15 03:35:31pm", "schedule_type": "STATIC", "schedule_name": "random_15", "is_biased_choice":true,"side_choice": "RIGHT", "trial_number":91,"observed_reward":0,"unobserved_reward":0},{"RT":3456,"time": "2018-08-15 03:35:35pm", "schedule_type": "STATIC", "schedule_name": "random_15", "is_biased_choice":false,"side_choice": "LEFT", "trial_number":92,"observed_reward":0,"unobserved_reward":1},{"RT":3546,"time": "2018-08-15 03:35:38pm", "schedule_type": "STATIC", "schedule_name": "random_15", "is_biased_choice":true,"side_choice": "RIGHT", "trial_number":93,"observed_reward":0,"unobserved_reward":1},{"RT":3309,"time": "2018-08-15 03:35:42pm", "schedule_type": "STATIC", "schedule_name": "random_15", "is_biased_choice":false,"side_choice": "LEFT", "trial_number":94,"observed_reward":1,"unobserved_reward":0},{"RT":3698,"time": "2018-08-15 03:35:45pm", "schedule_type": "STATIC", "schedule_name": "random_15", "is_biased_choice":true,"side_choice": "RIGHT", "trial_number":95,"observed_reward":0,"unobserved_reward":0},{"RT":3263,"time": "2018-08-15 03:35:48pm", "schedule_type": "STATIC", "schedule_name": "random_15", "is_biased_choice":false,"side_choice": "LEFT", "trial_number":96,"observed_reward":1,"unobserved_reward":0},{"RT":4502,"time": "2018-08-15 03:35:53pm", "schedule_type": "STATIC", "schedule_name": "random_15", "is_biased_choice":true,"side_choice": "RIGHT", "trial_number":97,"observed_reward":1,"unobserved_reward":0},{"RT":3810,"time": "2018-08-15 03:35:57pm", "schedule_type": "STATIC", "schedule_name": "random_15", "is_biased_choice":false,"side_choice": "LEFT", "trial_number":98,"observed_reward":0,"unobserved_reward":0},