trial_number, time, schedule_type, schedule_name, is_biased_choice, side_choice, RT, observed_reward, unobserved_reward, biased_reward, unbiased_reward
0,2019-09-15 12:06:52pm, STATIC, random_15, false, LEFT, 4185, 0, 0, 0, 0
1,2019-09-15 12:06:56pm, STATIC, random_15, true, RIGHT, 3780, 0, 1, 1, 0
2,2019-09-15 12:06:59pm, STATIC, random_15, false, LEFT, 3484, 1, 0, 0, 1
3,2019-09-15 12:07:04pm, STATIC, random_15, false, LEFT, 4295, 1, 0, 0, 1
4,2019-09-15 12:07:07pm, STATIC, random_15, false, LEFT, 3005, 0, 1, 1, 0
5,2019-09-15 12:07:19pm, STATIC, random_15, true, RIGHT, 12278, 0, 1, 1, 0
6,2019-09-15 12:07:22pm, STATIC, random_15, true, RIGHT, 2908, 0, 0, 0, 0
7,2019-09-15 12:07:24pm, STATIC, random_15, true, RIGHT, 2605, 0, 0, 0, 0
8,2019-09-15 12:07:27pm, STATIC, random_15, false, LEFT, 2659, 0, 1, 1, 0
9,2019-09-15 12:07:30pm, STATIC, random_15, false, LEFT, 2524, 0, 0, 0, 0
10,2019-09-15 12:07:32pm, STATIC, random_15, false, LEFT, 2572, 0, 1, 1, 0
11,2019-09-15 12:07:35pm, STATIC, random_15, false, LEFT, 2492, 0, 0, 0, 0
12,2019-09-15 12:07:37pm, STATIC, random_15, false, LEFT, 2635, 0, 0, 0, 0
13,2019-09-15 12:07:40pm, STATIC, random_15, true, RIGHT, 2625, 0, 0, 0, 0
14,2019-09-15 12:07:43pm, STATIC, random_15, false, LEFT, 2620, 0, 0, 0, 0
15,2019-09-15 12:07:45pm, STATIC, random_15, true, RIGHT, 2571, 0, 0, 0, 0
16,2019-09-15 12:07:48pm, STATIC, random_15, true, RIGHT, 2612, 0, 0, 0, 0
17,2019-09-15 12:07:50pm, STATIC, random_15, false, LEFT, 2732, 0, 0, 0, 0
18,2019-09-15 12:07:53pm, STATIC, random_15, false, LEFT, 2731, 1, 0, 0, 1
19,2019-09-15 12:07:56pm, STATIC, random_15, false, LEFT, 2805, 0, 0, 0, 0
20,2019-09-15 12:07:59pm, STATIC, random_15, false, LEFT, 2596, 0, 0, 0, 0
21,2019-09-15 12:08:01pm, STATIC, random_15, false, LEFT, 2664, 0, 1, 1, 0
22,2019-09-15 12:08:04pm, STATIC, random_15, false, LEFT, 2764, 0, 0, 0, 0
23,2019-09-15 12:08:07pm, STATIC, random_15, false, LEFT, 2851, 0, 0, 0, 0
24,2019-09-15 12:08:09pm, STATIC, random_15, false, LEFT, 2348, 0, 0, 0, 0
25,2019-09-15 12:08:12pm, STATIC, random_15, false, LEFT, 2548, 0, 1, 1, 0
26,2019-09-15 12:08:14pm, STATIC, random_15, false, LEFT, 2420, 0, 0, 0, 0
27,2019-09-15 12:08:17pm, STATIC, random_15, false, LEFT, 2532, 1, 0, 0, 1
28,2019-09-15 12:08:19pm, STATIC, random_15, false, LEFT, 2692, 0, 0, 0, 0
29,2019-09-15 12:08:22pm, STATIC, random_15, false, LEFT, 2420, 0, 1, 1, 0
30,2019-09-15 12:08:24pm, STATIC, random_15, false, LEFT, 2436, 1, 0, 0, 1
31,2019-09-15 12:08:27pm, STATIC, random_15, false, LEFT, 2655, 1, 0, 0, 1
32,2019-09-15 12:08:30pm, STATIC, random_15, false, LEFT, 2684, 0, 0, 0, 0
33,2019-09-15 12:08:32pm, STATIC, random_15, false, LEFT, 2612, 1, 0, 0, 1
34,2019-09-15 12:08:35pm, STATIC, random_15, false, LEFT, 2436, 0, 0, 0, 0
35,2019-09-15 12:08:37pm, STATIC, random_15, false, LEFT, 2564, 0, 0, 0, 0
36,2019-09-15 12:08:40pm, STATIC, random_15, false, LEFT, 2436, 0, 0, 0, 0
37,2019-09-15 12:09:03pm, STATIC, random_15, false, LEFT, 23478, 1, 0, 0, 1
38,2019-09-15 12:09:06pm, STATIC, random_15, false, LEFT, 2512, 0, 1, 1, 0
39,2019-09-15 12:09:08pm, STATIC, random_15, false, LEFT, 2573, 0, 0, 0, 0
40,2019-09-15 12:09:11pm, STATIC, random_15, false, LEFT, 2871, 1, 1, 1, 1
41,2019-09-15 12:09:14pm, STATIC, random_15, false, LEFT, 2452, 1, 1, 1, 1
42,2019-09-15 12:09:16pm, STATIC, random_15, false, LEFT, 2404, 0, 1, 1, 0
43,2019-09-15 12:09:19pm, STATIC, random_15, false, LEFT, 2676, 1, 0, 0, 1
44,2019-09-15 12:09:21pm, STATIC, random_15, false, LEFT, 2635, 0, 1, 1, 0
45,2019-09-15 12:09:24pm, STATIC, random_15, false, LEFT, 2684, 1, 0, 0, 1
46,2019-09-15 12:09:27pm, STATIC, random_15, false, LEFT, 2701, 0, 0, 0, 0
47,2019-09-15 12:09:29pm, STATIC, random_15, false, LEFT, 2620, 0, 0, 0, 0
48,2019-09-15 12:09:32pm, STATIC, random_15, false, LEFT, 2667, 0, 1, 1, 0
49,2019-09-15 12:09:34pm, STATIC, random_15, false, LEFT, 2532, 0, 0, 0, 0
50,2019-09-15 12:09:37pm, STATIC, random_15, false, LEFT, 2736, 1, 0, 0, 1
51,2019-09-15 12:09:40pm, STATIC, random_15, false, LEFT, 2804, 0, 0, 0, 0
52,2019-09-15 12:09:43pm, STATIC, random_15, false, LEFT, 2684, 0, 0, 0, 0
53,2019-09-15 12:09:45pm, STATIC, random_15, false, LEFT, 2699, 1, 0, 0, 1
54,2019-09-15 12:09:48pm, STATIC, random_15, false, LEFT, 2405, 1, 1, 1, 1
55,2019-09-15 12:09:50pm, STATIC, random_15, false, LEFT, 2523, 0, 0, 0, 0
56,2019-09-15 12:09:53pm, STATIC, random_15, false, LEFT, 2500, 0, 0, 0, 0
57,2019-09-15 12:09:55pm, STATIC, random_15, false, LEFT, 2540, 1, 0, 0, 1
58,2019-09-15 12:09:58pm, STATIC, random_15, false, LEFT, 2435, 0, 0, 0, 0
59,2019-09-15 12:10:00pm, STATIC, random_15, false, LEFT, 2373, 0, 1, 1, 0
60,2019-09-15 12:10:03pm, STATIC, random_15, false, LEFT, 2491, 0, 0, 0, 0
61,2019-09-15 12:10:05pm, STATIC, random_15, false, LEFT, 2613, 1, 1, 1, 1
62,2019-09-15 12:10:08pm, STATIC, random_15, false, LEFT, 2387, 0, 0, 0, 0
63,2019-09-15 12:10:10pm, STATIC, random_15, false, LEFT, 2420, 0, 0, 0, 0
64,2019-09-15 12:10:13pm, STATIC, random_15, false, LEFT, 2564, 0, 0, 0, 0
65,2019-09-15 12:10:15pm, STATIC, random_15, false, LEFT, 2632, 0, 0, 0, 0
66,2019-09-15 12:10:18pm, STATIC, random_15, false, LEFT, 2412, 0, 0, 0, 0
67,2019-09-15 12:10:20pm, STATIC, random_15, false, LEFT, 2540, 0, 1, 1, 0
68,2019-09-15 12:10:23pm, STATIC, random_15, false, LEFT, 2388, 0, 0, 0, 0
69,2019-09-15 12:10:25pm, STATIC, random_15, false, LEFT, 2516, 0, 1, 1, 0
70,2019-09-15 12:10:27pm, STATIC, random_15, false, LEFT, 2347, 1, 0, 0, 1
71,2019-09-15 12:10:30pm, STATIC, random_15, false, LEFT, 2501, 0, 0, 0, 0
72,2019-09-15 12:10:33pm, STATIC, random_15, false, LEFT, 2915, 0, 0, 0, 0
73,2019-09-15 12:10:35pm, STATIC, random_15, false, LEFT, 2504, 0, 0, 0, 0
74,2019-09-15 12:10:38pm, STATIC, random_15, false, LEFT, 2388, 0, 0, 0, 0
75,2019-09-15 12:10:40pm, STATIC, random_15, false, LEFT, 2339, 0, 0, 0, 0
76,2019-09-15 12:10:42pm, STATIC, random_15, false, LEFT, 2332, 1, 0, 0, 1
77,2019-09-15 12:10:45pm, STATIC, random_15, false, LEFT, 2605, 0, 1, 1, 0
78,2019-09-15 12:10:48pm, STATIC, random_15, false, LEFT, 2475, 0, 0, 0, 0
79,2019-09-15 12:10:50pm, STATIC, random_15, false, LEFT, 2661, 0, 0, 0, 0
80,2019-09-15 12:10:53pm, STATIC, random_15, false, LEFT, 2323, 1, 0, 0, 1
81,2019-09-15 12:10:55pm, STATIC, random_15, false, LEFT, 2580, 0, 1, 1, 0
82,2019-09-15 12:10:57pm, STATIC, random_15, false, LEFT, 2356, 0, 1, 1, 0
83,2019-09-15 12:11:00pm, STATIC, random_15, false, LEFT, 2515, 0, 0, 0, 0
84,2019-09-15 12:11:02pm, STATIC, random_15, false, LEFT, 2488, 1, 1, 1, 1
85,2019-09-15 12:11:05pm, STATIC, random_15, false, LEFT, 2488, 0, 0, 0, 0
86,2019-09-15 12:11:07pm, STATIC, random_15, false, LEFT, 2360, 1, 0, 0, 1
87,2019-09-15 12:11:10pm, STATIC, random_15, false, LEFT, 2400, 0, 0, 0, 0
88,2019-09-15 12:11:18pm, STATIC, random_15, false, LEFT, 8420, 0, 0, 0, 0
89,2019-09-15 12:11:20pm, STATIC, random_15, false, LEFT, 2348, 0, 0, 0, 0
90,2019-09-15 12:11:23pm, STATIC, random_15, false, LEFT, 2460, 0, 0, 0, 0
91,2019-09-15 12:11:25pm, STATIC, random_15, false, LEFT, 2388, 0, 0, 0, 0
92,2019-09-15 12:11:28pm, STATIC, random_15, false, LEFT, 2395, 0, 1, 1, 0
93,2019-09-15 12:11:30pm, STATIC, random_15, false, LEFT, 2420, 1, 0, 0, 1
94,2019-09-15 12:11:33pm, STATIC, random_15, false, LEFT, 2660, 1, 0, 0, 1
95,2019-09-15 12:11:58pm, STATIC, random_15, false, LEFT, 25431, 0, 0, 0, 0
96,2019-09-15 12:12:01pm, STATIC, random_15, false, LEFT, 2552, 1, 0, 0, 1
97,2019-09-15 12:12:03pm, STATIC, random_15, false, LEFT, 2611, 0, 1, 1, 0
98,2019-09-15 12:12:06pm, STATIC, random_15, false, LEFT, 2588, 0, 0, 0, 0
99,2019-09-15 12:12:09pm, STATIC, random_15, false, LEFT, 2532, 0, 0, 0, 0
