[{"RT":4823,"time": "2018-08-15 01:53:46pm", "schedule_type": "STATIC", "schedule_name": "random_10", "is_biased_choice":false,"side_choice": "RIGHT", "trial_number":0,"observed_reward":1,"unobserved_reward":1},{"RT":3048,"time": "2018-08-15 01:53:49pm", "schedule_type": "STATIC", "schedule_name": "random_10", "is_biased_choice":false,"side_choice": "RIGHT", "trial_number":1,"observed_reward":0,"unobserved_reward":0},{"RT":6414,"time": "2018-08-15 01:53:56pm", "schedule_type": "STATIC", "schedule_name": "random_10", "is_biased_choice":false,"side_choice": "RIGHT", "trial_number":2,"observed_reward":0,"unobserved_reward":1},{"RT":2712,"time": "2018-08-15 01:53:59pm", "schedule_type": "STATIC", "schedule_name": "random_10", "is_biased_choice":true,"side_choice": "LEFT", "trial_number":3,"observed_reward":0,"unobserved_reward":0},{"RT":3941,"time": "2018-08-15 01:54:03pm", "schedule_type": "STATIC", "schedule_name": "random_10", "is_biased_choice":false,"side_choice": "RIGHT", "trial_number":4,"observed_reward":0,"unobserved_reward":0},{"RT":3683,"time": "2018-08-15 01:54:06pm", "schedule_type": "STATIC", "schedule_name": "random_10", "is_biased_choice":false,"side_choice": "RIGHT", "trial_number":5,"observed_reward":0,"unobserved_reward":0},{"RT":2512,"time": "2018-08-15 01:54:09pm", "schedule_type": "STATIC", "schedule_name": "random_10", "is_biased_choice":false,"side_choice": "RIGHT", "trial_number":6,"observed_reward":1,"unobserved_reward":1},{"RT":3892,"time": "2018-08-15 01:54:13pm", "schedule_type": "STATIC", "schedule_name": "random_10", "is_biased_choice":true,"side_choice": "LEFT", "trial_number":7,"observed_reward":1,"unobserved_reward":0},{"RT":2556,"time": "2018-08-15 01:54:15pm", "schedule_type": "STATIC", "schedule_name": "random_10", "is_biased_choice":false,"side_choice": "RIGHT", "trial_number":8,"observed_reward":0,"unobserved_reward":0},{"RT":2776,"time": "2018-08-15 01:54:18pm", "schedule_type": "STATIC", "schedule_name": "random_10", "is_biased_choice":true,"side_choice": "LEFT", "trial_number":9,"observed_reward":0,"unobserved_reward":0},{"RT":3913,"time": "2018-08-15 01:54:22pm", "schedule_type": "STATIC", "schedule_name": "random_10", "is_biased_choice":false,"side_choice": "RIGHT", "trial_number":10,"observed_reward":0,"unobserved_reward":1},{"RT":2623,"time": "2018-08-15 01:54:24pm", "schedule_type": "STATIC", "schedule_name": "random_10", "is_biased_choice":true,"side_choice": "LEFT", "trial_number":11,"observed_reward":0,"unobserved_reward":1},{"RT":5751,"time": "2018-08-15 01:54:30pm", "schedule_type": "STATIC", "schedule_name": "random_10", "is_biased_choice":false,"side_choice": "RIGHT", "trial_number":12,"observed_reward":0,"unobserved_reward":1},{"RT":2887,"time": "2018-08-15 01:54:33pm", "schedule_type": "STATIC", "schedule_name": "random_10", "is_biased_choice":false,"side_choice": "RIGHT", "trial_number":13,"observed_reward":1,"unobserved_reward":0},{"RT":2793,"time": "2018-08-15 01:54:36pm", "schedule_type": "STATIC", "schedule_name": "random_10", "is_biased_choice":true,"side_choice": "LEFT", "trial_number":14,"observed_reward":0,"unobserved_reward":1},{"RT":2224,"time": "2018-08-15 01:54:38pm", "schedule_type": "STATIC", "schedule_name": "random_10", "is_biased_choice":true,"side_choice": "LEFT", "trial_number":15,"observed_reward":0,"unobserved_reward":0},{"RT":3129,"time": "2018-08-15 01:54:41pm", "schedule_type": "STATIC", "schedule_name": "random_10", "is_biased_choice":true,"side_choice": "LEFT", "trial_number":16,"observed_reward":0,"unobserved_reward":0},{"RT":4041,"time": "2018-08-15 01:54:45pm", "schedule_type": "STATIC", "schedule_name": "random_10", "is_biased_choice":false,"side_choice": "RIGHT", "trial_number":17,"observed_reward":1,"unobserved_reward":1},{"RT":2662,"time": "2018-08-15 01:54:48pm", "schedule_type": "STATIC", "schedule_name": "random_10", "is_biased_choice":true,"side_choice": "LEFT", "trial_number":18,"observed_reward":0,"unobserved_reward":1},{"RT":3824,"time": "2018-08-15 01:54:52pm", "schedule_type": "STATIC", "schedule_name": "random_10", "is_biased_choice":false,"side_choice": "RIGHT", "trial_number":19,"observed_reward":1,"unobserved_reward":0},{"RT":2856,"time": "2018-08-15 01:54:55pm", "schedule_type": "STATIC", "schedule_name": "random_10", "is_biased_choice":true,"side_choice": "LEFT", "trial_number":20,"observed_reward":0,"unobserved_reward":0},{"RT":3367,"time": "2018-08-15 01:54:58pm", "schedule_type": "STATIC", "schedule_name": "random_10", "is_biased_choice":false,"side_choice": "RIGHT", "trial_number":21,"observed_reward":0,"unobserved_reward":0},{"RT":3584,"time": "2018-08-15 01:55:02pm", "schedule_type": "STATIC", "schedule_name": "random_10", "is_biased_choice":false,"side_choice": "RIGHT", "trial_number":22,"observed_reward":0,"unobserved_reward":0},{"RT":3129,"time": "2018-08-15 01:55:05pm", "schedule_type": "STATIC", "schedule_name": "random_10", "is_biased_choice":false,"side_choice": "RIGHT", "trial_number":23,"observed_reward":0,"unobserved_reward":0},{"RT":3671,"time": "2018-08-15 01:55:08pm", "schedule_type": "STATIC", "schedule_name": "random_10", "is_biased_choice":true,"side_choice": "LEFT", "trial_number":24,"observed_reward":0,"unobserved_reward":0},{"RT":4296,"time": "2018-08-15 01:55:13pm", "schedule_type": "STATIC", "schedule_name": "random_10", "is_biased_choice":false,"side_choice": "RIGHT", "trial_number":25,"observed_reward":0,"unobserved_reward":1},{"RT":3752,"time": "2018-08-15 01:55:16pm", "schedule_type": "STATIC", "schedule_name": "random_10", "is_biased_choice":false,"side_choice": "RIGHT", "trial_number":26,"observed_reward":0,"unobserved_reward":0},{"RT":5777,"time": "2018-08-15 01:55:22pm", "schedule_type": "STATIC", "schedule_name": "random_10", "is_biased_choice":false,"side_choice": "RIGHT", "trial_number":27,"observed_reward":1,"unobserved_reward":0},{"RT":2831,"time": "2018-08-15 01:55:25pm", "schedule_type": "STATIC", "schedule_name": "random_10", "is_biased_choice":true,"side_choice": "LEFT", "trial_number":28,"observed_reward":0,"unobserved_reward":0},{"RT":3016,"time": "2018-08-15 01:55:28pm", "schedule_type": "STATIC", "schedule_name": "random_10", "is_biased_choice":false,"side_choice": "RIGHT", "trial_number":29,"observed_reward":0,"unobserved_reward":0},{"RT":3472,"time": "2018-08-15 01:55:32pm", "schedule_type": "STATIC", "schedule_name": "random_10", "is_biased_choice":false,"side_choice": "RIGHT", "trial_number":30,"observed_reward":1,"unobserved_reward":0},{"RT":2632,"time": "2018-08-15 01:55:34pm", "schedule_type": "STATIC", "schedule_name": "random_10", "is_biased_choice":false,"side_choice": "RIGHT", "trial_number":31,"observed_reward":1,"unobserved_reward":1},{"RT":6199,"time": "2018-08-15 01:55:40pm", "schedule_type": "STATIC", "schedule_name": "random_10", "is_biased_choice":true,"side_choice": "LEFT", "trial_number":32,"observed_reward":1,"unobserved_reward":0},{"RT":3913,"time": "2018-08-15 01:55:44pm", "schedule_type": "STATIC", "schedule_name": "random_10", "is_biased_choice":false,"side_choice": "RIGHT", "trial_number":33,"observed_reward":0,"unobserved_reward":0},{"RT":3999,"time": "2018-08-15 01:55:48pm", "schedule_type": "STATIC", "schedule_name": "random_10", "is_biased_choice":true,"side_choice": "LEFT", "trial_number":34,"observed_reward":0,"unobserved_reward":0},{"RT":3785,"time": "2018-08-15 01:55:52pm", "schedule_type": "STATIC", "schedule_name": "random_10", "is_biased_choice":true,"side_choice": "LEFT", "trial_number":35,"observed_reward":0,"unobserved_reward":1},{"RT":2831,"time": "2018-08-15 01:55:55pm", "schedule_type": "STATIC", "schedule_name": "random_10", "is_biased_choice":false,"side_choice": "RIGHT", "trial_number":36,"observed_reward":0,"unobserved_reward":0},{"RT":3560,"time": "2018-08-15 01:55:58pm", "schedule_type": "STATIC", "schedule_name": "random_10", "is_biased_choice":false,"side_choice": "RIGHT", "trial_number":37,"observed_reward":0,"unobserved_reward":0},{"RT":4560,"time": "2018-08-15 01:56:03pm", "schedule_type": "STATIC", "schedule_name": "random_10", "is_biased_choice":true,"side_choice": "LEFT", "trial_number":38,"observed_reward":1,"unobserved_reward":0},{"RT":3535,"time": "2018-08-15 01:56:07pm", "schedule_type": "STATIC", "schedule_name": "random_10", "is_biased_choice":false,"side_choice": "RIGHT", "trial_number":39,"observed_reward":1,"unobserved_reward":0},{"RT":4593,"time": "2018-08-15 01:56:11pm", "schedule_type": "STATIC", "schedule_name": "random_10", "is_biased_choice":false,"side_choice": "RIGHT", "trial_number":40,"observed_reward":0,"unobserved_reward":0},{"RT":2576,"time": "2018-08-15 01:56:14pm", "schedule_type": "STATIC", "schedule_name": "random_10", "is_biased_choice":false,"side_choice": "RIGHT", "trial_number":41,"observed_reward":0,"unobserved_reward":0},{"RT":3607,"time": "2018-08-15 01:56:17pm", "schedule_type": "STATIC", "schedule_name": "random_10", "is_biased_choice":false,"side_choice": "RIGHT", "trial_number":42,"observed_reward":1,"unobserved_reward":0},{"RT":4169,"time": "2018-08-15 01:56:21pm", "schedule_type": "STATIC", "schedule_name": "random_10", "is_biased_choice":false,"side_choice": "RIGHT", "trial_number":43,"observed_reward":0,"unobserved_reward":0},{"RT":3503,"time": "2018-08-15 01:56:25pm", "schedule_type": "STATIC", "schedule_name": "random_10", "is_biased_choice":true,"side_choice": "LEFT", "trial_number":44,"observed_reward":0,"unobserved_reward":1},{"RT":25527,"time": "2018-08-15 01:56:51pm", "schedule_type": "STATIC", "schedule_name": "random_10", "is_biased_choice":false,"side_choice": "RIGHT", "trial_number":45,"observed_reward":1,"unobserved_reward":1},{"RT":2850,"time": "2018-08-15 01:56:53pm", "schedule_type": "STATIC", "schedule_name": "random_10", "is_biased_choice":false,"side_choice": "RIGHT", "trial_number":46,"observed_reward":0,"unobserved_reward":0},{"RT":74124,"time": "2018-08-15 01:58:08pm", "schedule_type": "STATIC", "schedule_name": "random_10", "is_biased_choice":false,"side_choice": "RIGHT", "trial_number":47,"observed_reward":0,"unobserved_reward":1},{"RT":3568,"time": "2018-08-15 01:58:11pm", "schedule_type": "STATIC", "schedule_name": "random_10", "is_biased_choice":false,"side_choice": "RIGHT", "trial_number":48,"observed_reward":0,"unobserved_reward":0},{"RT":3504,"time": "2018-08-15 01:58:15pm", "schedule_type": "STATIC", "schedule_name": "random_10", "is_biased_choice":false,"side_choice": "RIGHT", "trial_number":49,"observed_reward":0,"unobserved_reward":0},{"RT":3456,"time": "2018-08-15 01:58:18pm", "schedule_type": "STATIC", "schedule_name": "random_10", "is_biased_choice":false,"side_choice": "RIGHT", "trial_number":50,"observed_reward":0,"unobserved_reward":0},{"RT":3591,"time": "2018-08-15 01:58:22pm", "schedule_type": "STATIC", "schedule_name": "random_10", "is_biased_choice":false,"side_choice": "RIGHT", "trial_number":51,"observed_reward":0,"unobserved_reward":0},{"RT":3769,"time": "2018-08-15 01:58:25pm", "schedule_type": "STATIC", "schedule_name": "random_10", "is_biased_choice":true,"side_choice": "LEFT", "trial_number":52,"observed_reward":0,"unobserved_reward":0},{"RT":2472,"time": "2018-08-15 01:58:28pm", "schedule_type": "STATIC", "schedule_name": "random_10", "is_biased_choice":false,"side_choice": "RIGHT", "trial_number":53,"observed_reward":0,"unobserved_reward":0},{"RT":3536,"time": "2018-08-15 01:58:31pm", "schedule_type": "STATIC", "schedule_name": "random_10", "is_biased_choice":false,"side_choice": "RIGHT", "trial_number":54,"observed_reward":1,"unobserved_reward":0},{"RT":4105,"time": "2018-08-15 01:58:35pm", "schedule_type": "STATIC", "schedule_name": "random_10", "is_biased_choice":true,"side_choice": "LEFT", "trial_number":55,"observed_reward":0,"unobserved_reward":0},{"RT":2846,"time": "2018-08-15 01:58:38pm", "schedule_type": "STATIC", "schedule_name": "random_10", "is_biased_choice":false,"side_choice": "RIGHT", "trial_number":56,"observed_reward":0,"unobserved_reward":1},{"RT":3185,"time": "2018-08-15 01:58:42pm", "schedule_type": "STATIC", "schedule_name": "random_10", "is_biased_choice":false,"side_choice": "RIGHT", "trial_number":57,"observed_reward":0,"unobserved_reward":1},{"RT":2759,"time": "2018-08-15 01:58:44pm", "schedule_type": "STATIC", "schedule_name": "random_10", "is_biased_choice":false,"side_choice": "RIGHT", "trial_number":58,"observed_reward":0,"unobserved_reward":0},{"RT":3736,"time": "2018-08-15 01:58:48pm", "schedule_type": "STATIC", "schedule_name": "random_10", "is_biased_choice":false,"side_choice": "RIGHT", "trial_number":59,"observed_reward":0,"unobserved_reward":1},{"RT":2953,"time": "2018-08-15 01:58:51pm", "schedule_type": "STATIC", "schedule_name": "random_10", "is_biased_choice":false,"side_choice": "RIGHT", "trial_number":60,"observed_reward":0,"unobserved_reward":0},{"RT":3255,"time": "2018-08-15 01:58:54pm", "schedule_type": "STATIC", "schedule_name": "random_10", "is_biased_choice":true,"side_choice": "LEFT", "trial_number":61,"observed_reward":1,"unobserved_reward":0},{"RT":3992,"time": "2018-08-15 01:58:58pm", "schedule_type": "STATIC", "schedule_name": "random_10", "is_biased_choice":true,"side_choice": "LEFT", "trial_number":62,"observed_reward":1,"unobserved_reward":0},{"RT":4352,"time": "2018-08-15 01:59:03pm", "schedule_type": "STATIC", "schedule_name": "random_10", "is_biased_choice":false,"side_choice": "RIGHT", "trial_number":63,"observed_reward":0,"unobserved_reward":0},{"RT":3583,"time": "2018-08-15 01:59:06pm", "schedule_type": "STATIC", "schedule_name": "random_10", "is_biased_choice":true,"side_choice": "LEFT", "trial_number":64,"observed_reward":1,"unobserved_reward":0},{"RT":9968,"time": "2018-08-15 01:59:16pm", "schedule_type": "STATIC", "schedule_name": "random_10", "is_biased_choice":true,"side_choice": "LEFT", "trial_number":65,"observed_reward":0,"unobserved_reward":1},{"RT":2705,"time": "2018-08-15 01:59:19pm", "schedule_type": "STATIC", "schedule_name": "random_10", "is_biased_choice":false,"side_choice": "RIGHT", "trial_number":66,"observed_reward":0,"unobserved_reward":1},{"RT":2815,"time": "2018-08-15 01:59:22pm", "schedule_type": "STATIC", "schedule_name": "random_10", "is_biased_choice":true,"side_choice": "LEFT", "trial_number":67,"observed_reward":1,"unobserved_reward":0},{"RT":2680,"time": "2018-08-15 01:59:24pm", "schedule_type": "STATIC", "schedule_name": "random_10", "is_biased_choice":false,"side_choice": "RIGHT", "trial_number":68,"observed_reward":0,"unobserved_reward":0},{"RT":3303,"time": "2018-08-15 01:59:28pm", "schedule_type": "STATIC", "schedule_name": "random_10", "is_biased_choice":true,"side_choice": "LEFT", "trial_number":69,"observed_reward":0,"unobserved_reward":1},{"RT":3608,"time": "2018-08-15 01:59:31pm", "schedule_type": "STATIC", "schedule_name": "random_10", "is_biased_choice":false,"side_choice": "RIGHT", "trial_number":70,"observed_reward":0,"unobserved_reward":0},{"RT":3792,"time": "2018-08-15 01:59:35pm", "schedule_type": "STATIC", "schedule_name": "random_10", "is_biased_choice":true,"side_choice": "LEFT", "trial_number":71,"observed_reward":0,"unobserved_reward":0},{"RT":3776,"time": "2018-08-15 01:59:39pm", "schedule_type": "STATIC", "schedule_name": "random_10", "is_biased_choice":false,"side_choice": "RIGHT", "trial_number":72,"observed_reward":0,"unobserved_reward":0},{"RT":3319,"time": "2018-08-15 01:59:42pm", "schedule_type": "STATIC", "schedule_name": "random_10", "is_biased_choice":true,"side_choice": "LEFT", "trial_number":73,"observed_reward":0,"unobserved_reward":0},{"RT":4432,"time": "2018-08-15 01:59:47pm", "schedule_type": "STATIC", "schedule_name": "random_10", "is_biased_choice":false,"side_choice": "RIGHT", "trial_number":74,"observed_reward":0,"unobserved_reward":0},{"RT":175451,"time": "2018-08-15 02:02:42pm", "schedule_type": "STATIC", "schedule_name": "random_10", "is_biased_choice":true,"side_choice": "LEFT", "trial_number":75,"observed_reward":0,"unobserved_reward":0},{"RT":2730,"time": "2018-08-15 02:02:45pm", "schedule_type": "STATIC", "schedule_name": "random_10", "is_biased_choice":false,"side_choice": "RIGHT", "trial_number":76,"observed_reward":0,"unobserved_reward":0},{"RT":2661,"time": "2018-08-15 02:02:47pm", "schedule_type": "STATIC", "schedule_name": "random_10", "is_biased_choice":true,"side_choice": "LEFT", "trial_number":77,"observed_reward":0,"unobserved_reward":0},{"RT":2945,"time": "2018-08-15 02:02:50pm", "schedule_type": "STATIC", "schedule_name": "random_10", "is_biased_choice":false,"side_choice": "RIGHT", "trial_number":78,"observed_reward":0,"unobserved_reward":0},{"RT":2543,"time": "2018-08-15 02:02:53pm", "schedule_type": "STATIC", "schedule_name": "random_10", "is_biased_choice":true,"side_choice": "LEFT", "trial_number":79,"observed_reward":1,"unobserved_reward":0},{"RT":2960,"time": "2018-08-15 02:02:56pm", "schedule_type": "STATIC", "schedule_name": "random_10", "is_biased_choice":false,"side_choice": "RIGHT", "trial_number":80,"observed_reward":1,"unobserved_reward":0},{"RT":3905,"time": "2018-08-15 02:03:00pm", "schedule_type": "STATIC", "schedule_name": "random_10", "is_biased_choice":true,"side_choice": "LEFT", "trial_number":81,"observed_reward":0,"unobserved_reward":0},{"RT":2784,"time": "2018-08-15 02:03:02pm", "schedule_type": "STATIC", "schedule_name": "random_10", "is_biased_choice":false,"side_choice": "RIGHT", "trial_number":82,"observed_reward":0,"unobserved_reward":0},{"RT":2935,"time": "2018-08-15 02:03:05pm", "schedule_type": "STATIC", "schedule_name": "random_10", "is_biased_choice":true,"side_choice": "LEFT", "trial_number":83,"observed_reward":1,"unobserved_reward":1},{"RT":3056,"time": "2018-08-15 02:03:09pm", "schedule_type": "STATIC", "schedule_name": "random_10", "is_biased_choice":true,"side_choice": "LEFT", "trial_number":84,"observed_reward":0,"unobserved_reward":0},{"RT":3032,"time": "2018-08-15 02:03:12pm", "schedule_type": "STATIC", "schedule_name": "random_10", "is_biased_choice":false,"side_choice": "RIGHT", "trial_number":85,"observed_reward":0,"unobserved_reward":0},{"RT":2664,"time": "2018-08-15 02:03:14pm", "schedule_type": "STATIC", "schedule_name": "random_10", "is_biased_choice":true,"side_choice": "LEFT", "trial_number":86,"observed_reward":1,"unobserved_reward":0},{"RT":2392,"time": "2018-08-15 02:03:17pm", "schedule_type": "STATIC", "schedule_name": "random_10", "is_biased_choice":false,"side_choice": "RIGHT", "trial_number":87,"observed_reward":1,"unobserved_reward":0},{"RT":2928,"time": "2018-08-15 02:03:19pm", "schedule_type": "STATIC", "schedule_name": "random_10", "is_biased_choice":true,"side_choice": "LEFT", "trial_number":88,"observed_reward":0,"unobserved_reward":1},{"RT":2904,"time": "2018-08-15 02:03:22pm", "schedule_type": "STATIC", "schedule_name": "random_10", "is_biased_choice":false,"side_choice": "RIGHT", "trial_number":89,"observed_reward":0,"unobserved_reward":0},{"RT":2895,"time": "2018-08-15 02:03:25pm", "schedule_type": "STATIC", "schedule_name": "random_10", "is_biased_choice":true,"side_choice": "LEFT", "trial_number":90,"observed_reward":0,"unobserved_reward":1},{"RT":2634,"time": "2018-08-15 02:03:28pm", "schedule_type": "STATIC", "schedule_name": "random_10", "is_biased_choice":false,"side_choice": "RIGHT", "trial_number":91,"observed_reward":0,"unobserved_reward":0},{"RT":3047,"time": "2018-08-15 02:03:31pm", "schedule_type": "STATIC", "schedule_name": "random_10", "is_biased_choice":true,"side_choice": "LEFT", "trial_number":92,"observed_reward":0,"unobserved_reward":0},{"RT":2457,"time": "2018-08-15 02:03:33pm", "schedule_type": "STATIC", "schedule_name": "random_10", "is_biased_choice":true,"side_choice": "LEFT", "trial_number":93,"observed_reward":0,"unobserved_reward":0},{"RT":2799,"time": "2018-08-15 02:03:36pm", "schedule_type": "STATIC", "schedule_name": "random_10", "is_biased_choice":true,"side_choice": "LEFT", "trial_number":94,"observed_reward":0,"unobserved_reward":1},{"RT":2815,"time": "2018-08-15 02:03:39pm", "schedule_type": "STATIC", "schedule_name": "random_10", "is_biased_choice":true,"side_choice": "LEFT", "trial_number":95,"observed_reward":0,"unobserved_reward":0},{"RT":3456,"time": "2018-08-15 02:03:43pm", "schedule_type": "STATIC", "schedule_name": "random_10", "is_biased_choice":false,"side_choice": "RIGHT", "trial_number":96,"observed_reward":0,"unobserved_reward":0},{"RT":2839,"time": "2018-08-15 02:03:45pm", "schedule_type": "STATIC", "schedule_name": "random_10", "is_biased_choice":false,"side_choice": "RIGHT", "trial_number":97,"observed_reward":0,"unobserved_reward":0},{"RT":3816,"time": "2018-08-15 02:03:49pm", "schedule_type": "STATIC", "schedule_name": "random_10", "is_biased_choice":true,"side_choice": "LEFT", "trial_number":98,"observed_reward":1,"unobserved_reward":0},