[{"RT":1540,"time": "2018-08-15 05:31:25pm", "schedule_type": "STATIC", "schedule_name": "random_10", "is_biased_choice":true,"side_choice": "RIGHT", "trial_number":0,"observed_reward":1,"unobserved_reward":1},{"RT":3056,"time": "2018-08-15 05:31:29pm", "schedule_type": "STATIC", "schedule_name": "random_10", "is_biased_choice":true,"side_choice": "RIGHT", "trial_number":1,"observed_reward":0,"unobserved_reward":0},{"RT":3065,"time": "2018-08-15 05:31:32pm", "schedule_type": "STATIC", "schedule_name": "random_10", "is_biased_choice":true,"side_choice": "RIGHT", "trial_number":2,"observed_reward":1,"unobserved_reward":0},{"RT":2463,"time": "2018-08-15 05:31:34pm", "schedule_type": "STATIC", "schedule_name": "random_10", "is_biased_choice":false,"side_choice": "LEFT", "trial_number":3,"observed_reward":0,"unobserved_reward":0},{"RT":2752,"time": "2018-08-15 05:31:37pm", "schedule_type": "STATIC", "schedule_name": "random_10", "is_biased_choice":true,"side_choice": "RIGHT", "trial_number":4,"observed_reward":0,"unobserved_reward":0},{"RT":2400,"time": "2018-08-15 05:31:39pm", "schedule_type": "STATIC", "schedule_name": "random_10", "is_biased_choice":true,"side_choice": "RIGHT", "trial_number":5,"observed_reward":0,"unobserved_reward":0},{"RT":2680,"time": "2018-08-15 05:31:42pm", "schedule_type": "STATIC", "schedule_name": "random_10", "is_biased_choice":true,"side_choice": "RIGHT", "trial_number":6,"observed_reward":1,"unobserved_reward":1},{"RT":6624,"time": "2018-08-15 05:31:48pm", "schedule_type": "STATIC", "schedule_name": "random_10", "is_biased_choice":true,"side_choice": "RIGHT", "trial_number":7,"observed_reward":1,"unobserved_reward":0},{"RT":2513,"time": "2018-08-15 05:31:51pm", "schedule_type": "STATIC", "schedule_name": "random_10", "is_biased_choice":true,"side_choice": "RIGHT", "trial_number":8,"observed_reward":0,"unobserved_reward":0},{"RT":2262,"time": "2018-08-15 05:31:53pm", "schedule_type": "STATIC", "schedule_name": "random_10", "is_biased_choice":true,"side_choice": "RIGHT", "trial_number":9,"observed_reward":0,"unobserved_reward":0},{"RT":2233,"time": "2018-08-15 05:31:55pm", "schedule_type": "STATIC", "schedule_name": "random_10", "is_biased_choice":true,"side_choice": "RIGHT", "trial_number":10,"observed_reward":1,"unobserved_reward":0},{"RT":10799,"time": "2018-08-15 05:32:06pm", "schedule_type": "STATIC", "schedule_name": "random_10", "is_biased_choice":true,"side_choice": "RIGHT", "trial_number":11,"observed_reward":0,"unobserved_reward":1},{"RT":2448,"time": "2018-08-15 05:32:09pm", "schedule_type": "STATIC", "schedule_name": "random_10", "is_biased_choice":true,"side_choice": "RIGHT", "trial_number":12,"observed_reward":1,"unobserved_reward":0},{"RT":2304,"time": "2018-08-15 05:32:11pm", "schedule_type": "STATIC", "schedule_name": "random_10", "is_biased_choice":true,"side_choice": "RIGHT", "trial_number":13,"observed_reward":0,"unobserved_reward":1},{"RT":2208,"time": "2018-08-15 05:32:13pm", "schedule_type": "STATIC", "schedule_name": "random_10", "is_biased_choice":true,"side_choice": "RIGHT", "trial_number":14,"observed_reward":0,"unobserved_reward":1},{"RT":2688,"time": "2018-08-15 05:32:16pm", "schedule_type": "STATIC", "schedule_name": "random_10", "is_biased_choice":true,"side_choice": "RIGHT", "trial_number":15,"observed_reward":0,"unobserved_reward":0},{"RT":2120,"time": "2018-08-15 05:32:18pm", "schedule_type": "STATIC", "schedule_name": "random_10", "is_biased_choice":true,"side_choice": "RIGHT", "trial_number":16,"observed_reward":0,"unobserved_reward":0},{"RT":2400,"time": "2018-08-15 05:32:20pm", "schedule_type": "STATIC", "schedule_name": "random_10", "is_biased_choice":false,"side_choice": "LEFT", "trial_number":17,"observed_reward":1,"unobserved_reward":1},{"RT":2208,"time": "2018-08-15 05:32:23pm", "schedule_type": "STATIC", "schedule_name": "random_10", "is_biased_choice":false,"side_choice": "LEFT", "trial_number":18,"observed_reward":1,"unobserved_reward":0},{"RT":2152,"time": "2018-08-15 05:32:25pm", "schedule_type": "STATIC", "schedule_name": "random_10", "is_biased_choice":false,"side_choice": "LEFT", "trial_number":19,"observed_reward":1,"unobserved_reward":0},{"RT":2232,"time": "2018-08-15 05:32:27pm", "schedule_type": "STATIC", "schedule_name": "random_10", "is_biased_choice":false,"side_choice": "LEFT", "trial_number":20,"observed_reward":0,"unobserved_reward":0},{"RT":2336,"time": "2018-08-15 05:32:29pm", "schedule_type": "STATIC", "schedule_name": "random_10", "is_biased_choice":true,"side_choice": "RIGHT", "trial_number":21,"observed_reward":0,"unobserved_reward":0},{"RT":2360,"time": "2018-08-15 05:32:32pm", "schedule_type": "STATIC", "schedule_name": "random_10", "is_biased_choice":true,"side_choice": "RIGHT", "trial_number":22,"observed_reward":0,"unobserved_reward":0},{"RT":2664,"time": "2018-08-15 05:32:34pm", "schedule_type": "STATIC", "schedule_name": "random_10", "is_biased_choice":false,"side_choice": "LEFT", "trial_number":23,"observed_reward":0,"unobserved_reward":0},{"RT":2160,"time": "2018-08-15 05:32:37pm", "schedule_type": "STATIC", "schedule_name": "random_10", "is_biased_choice":false,"side_choice": "LEFT", "trial_number":24,"observed_reward":0,"unobserved_reward":0},{"RT":2072,"time": "2018-08-15 05:32:39pm", "schedule_type": "STATIC", "schedule_name": "random_10", "is_biased_choice":true,"side_choice": "RIGHT", "trial_number":25,"observed_reward":1,"unobserved_reward":0},{"RT":2439,"time": "2018-08-15 05:32:41pm", "schedule_type": "STATIC", "schedule_name": "random_10", "is_biased_choice":true,"side_choice": "RIGHT", "trial_number":26,"observed_reward":0,"unobserved_reward":0},{"RT":2136,"time": "2018-08-15 05:32:43pm", "schedule_type": "STATIC", "schedule_name": "random_10", "is_biased_choice":true,"side_choice": "RIGHT", "trial_number":27,"observed_reward":0,"unobserved_reward":1},{"RT":2417,"time": "2018-08-15 05:32:46pm", "schedule_type": "STATIC", "schedule_name": "random_10", "is_biased_choice":false,"side_choice": "LEFT", "trial_number":28,"observed_reward":0,"unobserved_reward":0},{"RT":2336,"time": "2018-08-15 05:32:48pm", "schedule_type": "STATIC", "schedule_name": "random_10", "is_biased_choice":true,"side_choice": "RIGHT", "trial_number":29,"observed_reward":0,"unobserved_reward":0},{"RT":2175,"time": "2018-08-15 05:32:50pm", "schedule_type": "STATIC", "schedule_name": "random_10", "is_biased_choice":false,"side_choice": "LEFT", "trial_number":30,"observed_reward":1,"unobserved_reward":0},{"RT":2241,"time": "2018-08-15 05:32:52pm", "schedule_type": "STATIC", "schedule_name": "random_10", "is_biased_choice":false,"side_choice": "LEFT", "trial_number":31,"observed_reward":1,"unobserved_reward":1},{"RT":2375,"time": "2018-08-15 05:32:55pm", "schedule_type": "STATIC", "schedule_name": "random_10", "is_biased_choice":false,"side_choice": "LEFT", "trial_number":32,"observed_reward":0,"unobserved_reward":1},{"RT":2280,"time": "2018-08-15 05:32:57pm", "schedule_type": "STATIC", "schedule_name": "random_10", "is_biased_choice":true,"side_choice": "RIGHT", "trial_number":33,"observed_reward":0,"unobserved_reward":0},{"RT":2392,"time": "2018-08-15 05:32:59pm", "schedule_type": "STATIC", "schedule_name": "random_10", "is_biased_choice":true,"side_choice": "RIGHT", "trial_number":34,"observed_reward":0,"unobserved_reward":0},{"RT":2257,"time": "2018-08-15 05:33:02pm", "schedule_type": "STATIC", "schedule_name": "random_10", "is_biased_choice":false,"side_choice": "LEFT", "trial_number":35,"observed_reward":1,"unobserved_reward":0},{"RT":2215,"time": "2018-08-15 05:33:04pm", "schedule_type": "STATIC", "schedule_name": "random_10", "is_biased_choice":false,"side_choice": "LEFT", "trial_number":36,"observed_reward":0,"unobserved_reward":0},{"RT":2224,"time": "2018-08-15 05:33:06pm", "schedule_type": "STATIC", "schedule_name": "random_10", "is_biased_choice":false,"side_choice": "LEFT", "trial_number":37,"observed_reward":0,"unobserved_reward":0},{"RT":2312,"time": "2018-08-15 05:33:08pm", "schedule_type": "STATIC", "schedule_name": "random_10", "is_biased_choice":true,"side_choice": "RIGHT", "trial_number":38,"observed_reward":1,"unobserved_reward":0},{"RT":2160,"time": "2018-08-15 05:33:11pm", "schedule_type": "STATIC", "schedule_name": "random_10", "is_biased_choice":true,"side_choice": "RIGHT", "trial_number":39,"observed_reward":0,"unobserved_reward":1},{"RT":2208,"time": "2018-08-15 05:33:13pm", "schedule_type": "STATIC", "schedule_name": "random_10", "is_biased_choice":true,"side_choice": "RIGHT", "trial_number":40,"observed_reward":0,"unobserved_reward":0},{"RT":2160,"time": "2018-08-15 05:33:15pm", "schedule_type": "STATIC", "schedule_name": "random_10", "is_biased_choice":true,"side_choice": "RIGHT", "trial_number":41,"observed_reward":0,"unobserved_reward":0},{"RT":2223,"time": "2018-08-15 05:33:17pm", "schedule_type": "STATIC", "schedule_name": "random_10", "is_biased_choice":true,"side_choice": "RIGHT", "trial_number":42,"observed_reward":0,"unobserved_reward":1},{"RT":2073,"time": "2018-08-15 05:33:19pm", "schedule_type": "STATIC", "schedule_name": "random_10", "is_biased_choice":true,"side_choice": "RIGHT", "trial_number":43,"observed_reward":0,"unobserved_reward":0},{"RT":2160,"time": "2018-08-15 05:33:21pm", "schedule_type": "STATIC", "schedule_name": "random_10", "is_biased_choice":true,"side_choice": "RIGHT", "trial_number":44,"observed_reward":0,"unobserved_reward":1},{"RT":2208,"time": "2018-08-15 05:33:24pm", "schedule_type": "STATIC", "schedule_name": "random_10", "is_biased_choice":false,"side_choice": "LEFT", "trial_number":45,"observed_reward":1,"unobserved_reward":1},{"RT":2177,"time": "2018-08-15 05:33:26pm", "schedule_type": "STATIC", "schedule_name": "random_10", "is_biased_choice":true,"side_choice": "RIGHT", "trial_number":46,"observed_reward":0,"unobserved_reward":0},{"RT":2078,"time": "2018-08-15 05:33:28pm", "schedule_type": "STATIC", "schedule_name": "random_10", "is_biased_choice":false,"side_choice": "LEFT", "trial_number":47,"observed_reward":0,"unobserved_reward":1},{"RT":2273,"time": "2018-08-15 05:33:30pm", "schedule_type": "STATIC", "schedule_name": "random_10", "is_biased_choice":false,"side_choice": "LEFT", "trial_number":48,"observed_reward":0,"unobserved_reward":0},{"RT":2231,"time": "2018-08-15 05:33:32pm", "schedule_type": "STATIC", "schedule_name": "random_10", "is_biased_choice":false,"side_choice": "LEFT", "trial_number":49,"observed_reward":0,"unobserved_reward":0},{"RT":2160,"time": "2018-08-15 05:33:35pm", "schedule_type": "STATIC", "schedule_name": "random_10", "is_biased_choice":true,"side_choice": "RIGHT", "trial_number":50,"observed_reward":0,"unobserved_reward":0},{"RT":2256,"time": "2018-08-15 05:33:37pm", "schedule_type": "STATIC", "schedule_name": "random_10", "is_biased_choice":false,"side_choice": "LEFT", "trial_number":51,"observed_reward":0,"unobserved_reward":0},{"RT":2256,"time": "2018-08-15 05:33:39pm", "schedule_type": "STATIC", "schedule_name": "random_10", "is_biased_choice":true,"side_choice": "RIGHT", "trial_number":52,"observed_reward":0,"unobserved_reward":0},{"RT":2105,"time": "2018-08-15 05:33:41pm", "schedule_type": "STATIC", "schedule_name": "random_10", "is_biased_choice":false,"side_choice": "LEFT", "trial_number":53,"observed_reward":0,"unobserved_reward":0},{"RT":2135,"time": "2018-08-15 05:33:43pm", "schedule_type": "STATIC", "schedule_name": "random_10", "is_biased_choice":false,"side_choice": "LEFT", "trial_number":54,"observed_reward":1,"unobserved_reward":0},{"RT":2153,"time": "2018-08-15 05:33:45pm", "schedule_type": "STATIC", "schedule_name": "random_10", "is_biased_choice":false,"side_choice": "LEFT", "trial_number":55,"observed_reward":0,"unobserved_reward":0},{"RT":2143,"time": "2018-08-15 05:33:48pm", "schedule_type": "STATIC", "schedule_name": "random_10", "is_biased_choice":false,"side_choice": "LEFT", "trial_number":56,"observed_reward":0,"unobserved_reward":1},{"RT":2216,"time": "2018-08-15 05:33:50pm", "schedule_type": "STATIC", "schedule_name": "random_10", "is_biased_choice":false,"side_choice": "LEFT", "trial_number":57,"observed_reward":0,"unobserved_reward":1},{"RT":2152,"time": "2018-08-15 05:33:52pm", "schedule_type": "STATIC", "schedule_name": "random_10", "is_biased_choice":true,"side_choice": "RIGHT", "trial_number":58,"observed_reward":0,"unobserved_reward":0},{"RT":2056,"time": "2018-08-15 05:33:54pm", "schedule_type": "STATIC", "schedule_name": "random_10", "is_biased_choice":true,"side_choice": "RIGHT", "trial_number":59,"observed_reward":1,"unobserved_reward":0},{"RT":2072,"time": "2018-08-15 05:33:56pm", "schedule_type": "STATIC", "schedule_name": "random_10", "is_biased_choice":true,"side_choice": "RIGHT", "trial_number":60,"observed_reward":0,"unobserved_reward":0},{"RT":2000,"time": "2018-08-15 05:33:58pm", "schedule_type": "STATIC", "schedule_name": "random_10", "is_biased_choice":true,"side_choice": "RIGHT", "trial_number":61,"observed_reward":1,"unobserved_reward":0},{"RT":2080,"time": "2018-08-15 05:34:00pm", "schedule_type": "STATIC", "schedule_name": "random_10", "is_biased_choice":true,"side_choice": "RIGHT", "trial_number":62,"observed_reward":1,"unobserved_reward":0},{"RT":2392,"time": "2018-08-15 05:34:03pm", "schedule_type": "STATIC", "schedule_name": "random_10", "is_biased_choice":true,"side_choice": "RIGHT", "trial_number":63,"observed_reward":0,"unobserved_reward":0},{"RT":2192,"time": "2018-08-15 05:34:05pm", "schedule_type": "STATIC", "schedule_name": "random_10", "is_biased_choice":true,"side_choice": "RIGHT", "trial_number":64,"observed_reward":1,"unobserved_reward":0},{"RT":2176,"time": "2018-08-15 05:34:07pm", "schedule_type": "STATIC", "schedule_name": "random_10", "is_biased_choice":true,"side_choice": "RIGHT", "trial_number":65,"observed_reward":0,"unobserved_reward":1},{"RT":2111,"time": "2018-08-15 05:34:09pm", "schedule_type": "STATIC", "schedule_name": "random_10", "is_biased_choice":true,"side_choice": "RIGHT", "trial_number":66,"observed_reward":1,"unobserved_reward":0},{"RT":2306,"time": "2018-08-15 05:34:11pm", "schedule_type": "STATIC", "schedule_name": "random_10", "is_biased_choice":true,"side_choice": "RIGHT", "trial_number":67,"observed_reward":1,"unobserved_reward":0},{"RT":2198,"time": "2018-08-15 05:34:14pm", "schedule_type": "STATIC", "schedule_name": "random_10", "is_biased_choice":true,"side_choice": "RIGHT", "trial_number":68,"observed_reward":0,"unobserved_reward":0},{"RT":2240,"time": "2018-08-15 05:34:16pm", "schedule_type": "STATIC", "schedule_name": "random_10", "is_biased_choice":true,"side_choice": "RIGHT", "trial_number":69,"observed_reward":0,"unobserved_reward":1},{"RT":2249,"time": "2018-08-15 05:34:18pm", "schedule_type": "STATIC", "schedule_name": "random_10", "is_biased_choice":true,"side_choice": "RIGHT", "trial_number":70,"observed_reward":0,"unobserved_reward":0},{"RT":2264,"time": "2018-08-15 05:34:20pm", "schedule_type": "STATIC", "schedule_name": "random_10", "is_biased_choice":true,"side_choice": "RIGHT", "trial_number":71,"observed_reward":0,"unobserved_reward":0},{"RT":2287,"time": "2018-08-15 05:34:23pm", "schedule_type": "STATIC", "schedule_name": "random_10", "is_biased_choice":true,"side_choice": "RIGHT", "trial_number":72,"observed_reward":0,"unobserved_reward":0},{"RT":2193,"time": "2018-08-15 05:34:25pm", "schedule_type": "STATIC", "schedule_name": "random_10", "is_biased_choice":true,"side_choice": "RIGHT", "trial_number":73,"observed_reward":0,"unobserved_reward":0},{"RT":2303,"time": "2018-08-15 05:34:27pm", "schedule_type": "STATIC", "schedule_name": "random_10", "is_biased_choice":true,"side_choice": "RIGHT", "trial_number":74,"observed_reward":0,"unobserved_reward":0},{"RT":2201,"time": "2018-08-15 05:34:29pm", "schedule_type": "STATIC", "schedule_name": "random_10", "is_biased_choice":true,"side_choice": "RIGHT", "trial_number":75,"observed_reward":0,"unobserved_reward":0},{"RT":2191,"time": "2018-08-15 05:34:31pm", "schedule_type": "STATIC", "schedule_name": "random_10", "is_biased_choice":true,"side_choice": "RIGHT", "trial_number":76,"observed_reward":0,"unobserved_reward":0},{"RT":2040,"time": "2018-08-15 05:34:34pm", "schedule_type": "STATIC", "schedule_name": "random_10", "is_biased_choice":true,"side_choice": "RIGHT", "trial_number":77,"observed_reward":0,"unobserved_reward":0},{"RT":2144,"time": "2018-08-15 05:34:36pm", "schedule_type": "STATIC", "schedule_name": "random_10", "is_biased_choice":true,"side_choice": "RIGHT", "trial_number":78,"observed_reward":0,"unobserved_reward":0},{"RT":3056,"time": "2018-08-15 05:34:39pm", "schedule_type": "STATIC", "schedule_name": "random_10", "is_biased_choice":false,"side_choice": "LEFT", "trial_number":79,"observed_reward":0,"unobserved_reward":1},{"RT":2144,"time": "2018-08-15 05:34:41pm", "schedule_type": "STATIC", "schedule_name": "random_10", "is_biased_choice":false,"side_choice": "LEFT", "trial_number":80,"observed_reward":1,"unobserved_reward":0},{"RT":2121,"time": "2018-08-15 05:34:43pm", "schedule_type": "STATIC", "schedule_name": "random_10", "is_biased_choice":false,"side_choice": "LEFT", "trial_number":81,"observed_reward":0,"unobserved_reward":0},{"RT":2079,"time": "2018-08-15 05:34:45pm", "schedule_type": "STATIC", "schedule_name": "random_10", "is_biased_choice":false,"side_choice": "LEFT", "trial_number":82,"observed_reward":0,"unobserved_reward":0},{"RT":6520,"time": "2018-08-15 05:34:52pm", "schedule_type": "STATIC", "schedule_name": "random_10", "is_biased_choice":false,"side_choice": "LEFT", "trial_number":83,"observed_reward":1,"unobserved_reward":1},{"RT":2112,"time": "2018-08-15 05:34:54pm", "schedule_type": "STATIC", "schedule_name": "random_10", "is_biased_choice":false,"side_choice": "LEFT", "trial_number":84,"observed_reward":0,"unobserved_reward":0},{"RT":2128,"time": "2018-08-15 05:34:56pm", "schedule_type": "STATIC", "schedule_name": "random_10", "is_biased_choice":false,"side_choice": "LEFT", "trial_number":85,"observed_reward":0,"unobserved_reward":0},{"RT":2087,"time": "2018-08-15 05:34:58pm", "schedule_type": "STATIC", "schedule_name": "random_10", "is_biased_choice":true,"side_choice": "RIGHT", "trial_number":86,"observed_reward":1,"unobserved_reward":0},{"RT":2120,"time": "2018-08-15 05:35:00pm", "schedule_type": "STATIC", "schedule_name": "random_10", "is_biased_choice":true,"side_choice": "RIGHT", "trial_number":87,"observed_reward":0,"unobserved_reward":1},{"RT":2097,"time": "2018-08-15 05:35:02pm", "schedule_type": "STATIC", "schedule_name": "random_10", "is_biased_choice":false,"side_choice": "LEFT", "trial_number":88,"observed_reward":1,"unobserved_reward":0},{"RT":2328,"time": "2018-08-15 05:35:04pm", "schedule_type": "STATIC", "schedule_name": "random_10", "is_biased_choice":false,"side_choice": "LEFT", "trial_number":89,"observed_reward":0,"unobserved_reward":0},{"RT":2055,"time": "2018-08-15 05:35:06pm", "schedule_type": "STATIC", "schedule_name": "random_10", "is_biased_choice":true,"side_choice": "RIGHT", "trial_number":90,"observed_reward":0,"unobserved_reward":1},{"RT":2161,"time": "2018-08-15 05:35:09pm", "schedule_type": "STATIC", "schedule_name": "random_10", "is_biased_choice":false,"side_choice": "LEFT", "trial_number":91,"observed_reward":0,"unobserved_reward":0},{"RT":2143,"time": "2018-08-15 05:35:11pm", "schedule_type": "STATIC", "schedule_name": "random_10", "is_biased_choice":true,"side_choice": "RIGHT", "trial_number":92,"observed_reward":0,"unobserved_reward":0},{"RT":2072,"time": "2018-08-15 05:35:13pm", "schedule_type": "STATIC", "schedule_name": "random_10", "is_biased_choice":false,"side_choice": "LEFT", "trial_number":93,"observed_reward":0,"unobserved_reward":0},{"RT":2104,"time": "2018-08-15 05:35:15pm", "schedule_type": "STATIC", "schedule_name": "random_10", "is_biased_choice":true,"side_choice": "RIGHT", "trial_number":94,"observed_reward":0,"unobserved_reward":1},{"RT":2049,"time": "2018-08-15 05:35:17pm", "schedule_type": "STATIC", "schedule_name": "random_10", "is_biased_choice":false,"side_choice": "LEFT", "trial_number":95,"observed_reward":0,"unobserved_reward":0},{"RT":2144,"time": "2018-08-15 05:35:19pm", "schedule_type": "STATIC", "schedule_name": "random_10", "is_biased_choice":true,"side_choice": "RIGHT", "trial_number":96,"observed_reward":0,"unobserved_reward":0},{"RT":2287,"time": "2018-08-15 05:35:21pm", "schedule_type": "STATIC", "schedule_name": "random_10", "is_biased_choice":false,"side_choice": "LEFT", "trial_number":97,"observed_reward":0,"unobserved_reward":0},{"RT":2104,"time": "2018-08-15 05:35:24pm", "schedule_type": "STATIC", "schedule_name": "random_10", "is_biased_choice":true,"side_choice": "RIGHT", "trial_number":98,"observed_reward":1,"unobserved_reward":0},{"RT":2240,"time": "2018-08-15 05:35:26pm", "schedule_type": "STATIC", "schedule_name": "random_10", "is_biased_choice":false,"side_choice": "LEFT", "trial_number":99,"observed_reward":0,"unobserved_reward":0},