trial_number, time, schedule_type, schedule_name, is_biased_choice, side_choice, RT, observed_reward, unobserved_reward, biased_reward, unbiased_reward
0,2018-08-15 01:53:46pm, STATIC, random_10, false, RIGHT, 4823, 1, 1, 1, 1
1,2018-08-15 01:53:49pm, STATIC, random_10, false, RIGHT, 3048, 0, 0, 0, 0
2,2018-08-15 01:53:56pm, STATIC, random_10, false, RIGHT, 6414, 0, 1, 1, 0
3,2018-08-15 01:53:59pm, STATIC, random_10, true, LEFT, 2712, 0, 0, 0, 0
4,2018-08-15 01:54:03pm, STATIC, random_10, false, RIGHT, 3941, 0, 0, 0, 0
5,2018-08-15 01:54:06pm, STATIC, random_10, false, RIGHT, 3683, 0, 0, 0, 0
6,2018-08-15 01:54:09pm, STATIC, random_10, false, RIGHT, 2512, 1, 1, 1, 1
7,2018-08-15 01:54:13pm, STATIC, random_10, true, LEFT, 3892, 1, 0, 1, 0
8,2018-08-15 01:54:15pm, STATIC, random_10, false, RIGHT, 2556, 0, 0, 0, 0
9,2018-08-15 01:54:18pm, STATIC, random_10, true, LEFT, 2776, 0, 0, 0, 0
10,2018-08-15 01:54:22pm, STATIC, random_10, false, RIGHT, 3913, 0, 1, 1, 0
11,2018-08-15 01:54:24pm, STATIC, random_10, true, LEFT, 2623, 0, 1, 0, 1
12,2018-08-15 01:54:30pm, STATIC, random_10, false, RIGHT, 5751, 0, 1, 1, 0
13,2018-08-15 01:54:33pm, STATIC, random_10, false, RIGHT, 2887, 1, 0, 0, 1
14,2018-08-15 01:54:36pm, STATIC, random_10, true, LEFT, 2793, 0, 1, 0, 1
15,2018-08-15 01:54:38pm, STATIC, random_10, true, LEFT, 2224, 0, 0, 0, 0
16,2018-08-15 01:54:41pm, STATIC, random_10, true, LEFT, 3129, 0, 0, 0, 0
17,2018-08-15 01:54:45pm, STATIC, random_10, false, RIGHT, 4041, 1, 1, 1, 1
18,2018-08-15 01:54:48pm, STATIC, random_10, true, LEFT, 2662, 0, 1, 0, 1
19,2018-08-15 01:54:52pm, STATIC, random_10, false, RIGHT, 3824, 1, 0, 0, 1
20,2018-08-15 01:54:55pm, STATIC, random_10, true, LEFT, 2856, 0, 0, 0, 0
21,2018-08-15 01:54:58pm, STATIC, random_10, false, RIGHT, 3367, 0, 0, 0, 0
22,2018-08-15 01:55:02pm, STATIC, random_10, false, RIGHT, 3584, 0, 0, 0, 0
23,2018-08-15 01:55:05pm, STATIC, random_10, false, RIGHT, 3129, 0, 0, 0, 0
24,2018-08-15 01:55:08pm, STATIC, random_10, true, LEFT, 3671, 0, 0, 0, 0
25,2018-08-15 01:55:13pm, STATIC, random_10, false, RIGHT, 4296, 0, 1, 1, 0
26,2018-08-15 01:55:16pm, STATIC, random_10, false, RIGHT, 3752, 0, 0, 0, 0
27,2018-08-15 01:55:22pm, STATIC, random_10, false, RIGHT, 5777, 1, 0, 0, 1
28,2018-08-15 01:55:25pm, STATIC, random_10, true, LEFT, 2831, 0, 0, 0, 0
29,2018-08-15 01:55:28pm, STATIC, random_10, false, RIGHT, 3016, 0, 0, 0, 0
30,2018-08-15 01:55:32pm, STATIC, random_10, false, RIGHT, 3472, 1, 0, 0, 1
31,2018-08-15 01:55:34pm, STATIC, random_10, false, RIGHT, 2632, 1, 1, 1, 1
32,2018-08-15 01:55:40pm, STATIC, random_10, true, LEFT, 6199, 1, 0, 1, 0
33,2018-08-15 01:55:44pm, STATIC, random_10, false, RIGHT, 3913, 0, 0, 0, 0
34,2018-08-15 01:55:48pm, STATIC, random_10, true, LEFT, 3999, 0, 0, 0, 0
35,2018-08-15 01:55:52pm, STATIC, random_10, true, LEFT, 3785, 0, 1, 0, 1
36,2018-08-15 01:55:55pm, STATIC, random_10, false, RIGHT, 2831, 0, 0, 0, 0
37,2018-08-15 01:55:58pm, STATIC, random_10, false, RIGHT, 3560, 0, 0, 0, 0
38,2018-08-15 01:56:03pm, STATIC, random_10, true, LEFT, 4560, 1, 0, 1, 0
39,2018-08-15 01:56:07pm, STATIC, random_10, false, RIGHT, 3535, 1, 0, 0, 1
40,2018-08-15 01:56:11pm, STATIC, random_10, false, RIGHT, 4593, 0, 0, 0, 0
41,2018-08-15 01:56:14pm, STATIC, random_10, false, RIGHT, 2576, 0, 0, 0, 0
42,2018-08-15 01:56:17pm, STATIC, random_10, false, RIGHT, 3607, 1, 0, 0, 1
43,2018-08-15 01:56:21pm, STATIC, random_10, false, RIGHT, 4169, 0, 0, 0, 0
44,2018-08-15 01:56:25pm, STATIC, random_10, true, LEFT, 3503, 0, 1, 0, 1
45,2018-08-15 01:56:51pm, STATIC, random_10, false, RIGHT, 25527, 1, 1, 1, 1
46,2018-08-15 01:56:53pm, STATIC, random_10, false, RIGHT, 2850, 0, 0, 0, 0
47,2018-08-15 01:58:08pm, STATIC, random_10, false, RIGHT, 74124, 0, 1, 1, 0
48,2018-08-15 01:58:11pm, STATIC, random_10, false, RIGHT, 3568, 0, 0, 0, 0
49,2018-08-15 01:58:15pm, STATIC, random_10, false, RIGHT, 3504, 0, 0, 0, 0
50,2018-08-15 01:58:18pm, STATIC, random_10, false, RIGHT, 3456, 0, 0, 0, 0
51,2018-08-15 01:58:22pm, STATIC, random_10, false, RIGHT, 3591, 0, 0, 0, 0
52,2018-08-15 01:58:25pm, STATIC, random_10, true, LEFT, 3769, 0, 0, 0, 0
53,2018-08-15 01:58:28pm, STATIC, random_10, false, RIGHT, 2472, 0, 0, 0, 0
54,2018-08-15 01:58:31pm, STATIC, random_10, false, RIGHT, 3536, 1, 0, 0, 1
55,2018-08-15 01:58:35pm, STATIC, random_10, true, LEFT, 4105, 0, 0, 0, 0
56,2018-08-15 01:58:38pm, STATIC, random_10, false, RIGHT, 2846, 0, 1, 1, 0
57,2018-08-15 01:58:42pm, STATIC, random_10, false, RIGHT, 3185, 0, 1, 1, 0
58,2018-08-15 01:58:44pm, STATIC, random_10, false, RIGHT, 2759, 0, 0, 0, 0
59,2018-08-15 01:58:48pm, STATIC, random_10, false, RIGHT, 3736, 0, 1, 1, 0
60,2018-08-15 01:58:51pm, STATIC, random_10, false, RIGHT, 2953, 0, 0, 0, 0
61,2018-08-15 01:58:54pm, STATIC, random_10, true, LEFT, 3255, 1, 0, 1, 0
62,2018-08-15 01:58:58pm, STATIC, random_10, true, LEFT, 3992, 1, 0, 1, 0
63,2018-08-15 01:59:03pm, STATIC, random_10, false, RIGHT, 4352, 0, 0, 0, 0
64,2018-08-15 01:59:06pm, STATIC, random_10, true, LEFT, 3583, 1, 0, 1, 0
65,2018-08-15 01:59:16pm, STATIC, random_10, true, LEFT, 9968, 0, 1, 0, 1
66,2018-08-15 01:59:19pm, STATIC, random_10, false, RIGHT, 2705, 0, 1, 1, 0
67,2018-08-15 01:59:22pm, STATIC, random_10, true, LEFT, 2815, 1, 0, 1, 0
68,2018-08-15 01:59:24pm, STATIC, random_10, false, RIGHT, 2680, 0, 0, 0, 0
69,2018-08-15 01:59:28pm, STATIC, random_10, true, LEFT, 3303, 0, 1, 0, 1
70,2018-08-15 01:59:31pm, STATIC, random_10, false, RIGHT, 3608, 0, 0, 0, 0
71,2018-08-15 01:59:35pm, STATIC, random_10, true, LEFT, 3792, 0, 0, 0, 0
72,2018-08-15 01:59:39pm, STATIC, random_10, false, RIGHT, 3776, 0, 0, 0, 0
73,2018-08-15 01:59:42pm, STATIC, random_10, true, LEFT, 3319, 0, 0, 0, 0
74,2018-08-15 01:59:47pm, STATIC, random_10, false, RIGHT, 4432, 0, 0, 0, 0
75,2018-08-15 02:02:42pm, STATIC, random_10, true, LEFT, 175451, 0, 0, 0, 0
76,2018-08-15 02:02:45pm, STATIC, random_10, false, RIGHT, 2730, 0, 0, 0, 0
77,2018-08-15 02:02:47pm, STATIC, random_10, true, LEFT, 2661, 0, 0, 0, 0
78,2018-08-15 02:02:50pm, STATIC, random_10, false, RIGHT, 2945, 0, 0, 0, 0
79,2018-08-15 02:02:53pm, STATIC, random_10, true, LEFT, 2543, 1, 0, 1, 0
80,2018-08-15 02:02:56pm, STATIC, random_10, false, RIGHT, 2960, 1, 0, 0, 1
81,2018-08-15 02:03:00pm, STATIC, random_10, true, LEFT, 3905, 0, 0, 0, 0
82,2018-08-15 02:03:02pm, STATIC, random_10, false, RIGHT, 2784, 0, 0, 0, 0
83,2018-08-15 02:03:05pm, STATIC, random_10, true, LEFT, 2935, 1, 1, 1, 1
84,2018-08-15 02:03:09pm, STATIC, random_10, true, LEFT, 3056, 0, 0, 0, 0
85,2018-08-15 02:03:12pm, STATIC, random_10, false, RIGHT, 3032, 0, 0, 0, 0
86,2018-08-15 02:03:14pm, STATIC, random_10, true, LEFT, 2664, 1, 0, 1, 0
87,2018-08-15 02:03:17pm, STATIC, random_10, false, RIGHT, 2392, 1, 0, 0, 1
88,2018-08-15 02:03:19pm, STATIC, random_10, true, LEFT, 2928, 0, 1, 0, 1
89,2018-08-15 02:03:22pm, STATIC, random_10, false, RIGHT, 2904, 0, 0, 0, 0
90,2018-08-15 02:03:25pm, STATIC, random_10, true, LEFT, 2895, 0, 1, 0, 1
91,2018-08-15 02:03:28pm, STATIC, random_10, false, RIGHT, 2634, 0, 0, 0, 0
92,2018-08-15 02:03:31pm, STATIC, random_10, true, LEFT, 3047, 0, 0, 0, 0
93,2018-08-15 02:03:33pm, STATIC, random_10, true, LEFT, 2457, 0, 0, 0, 0
94,2018-08-15 02:03:36pm, STATIC, random_10, true, LEFT, 2799, 0, 1, 0, 1
95,2018-08-15 02:03:39pm, STATIC, random_10, true, LEFT, 2815, 0, 0, 0, 0
96,2018-08-15 02:03:43pm, STATIC, random_10, false, RIGHT, 3456, 0, 0, 0, 0
97,2018-08-15 02:03:45pm, STATIC, random_10, false, RIGHT, 2839, 0, 0, 0, 0
98,2018-08-15 02:03:49pm, STATIC, random_10, true, LEFT, 3816, 1, 0, 1, 0
