[{"RT":8949,"time": "2018-08-15 01:42:43pm", "schedule_type": "STATIC", "schedule_name": "random_10", "is_biased_choice":false,"side_choice": "LEFT", "trial_number":0,"observed_reward":1,"unobserved_reward":1},{"RT":3409,"time": "2018-08-15 01:42:47pm", "schedule_type": "STATIC", "schedule_name": "random_10", "is_biased_choice":false,"side_choice": "LEFT", "trial_number":1,"observed_reward":0,"unobserved_reward":0},{"RT":8430,"time": "2018-08-15 01:42:55pm", "schedule_type": "STATIC", "schedule_name": "random_10", "is_biased_choice":true,"side_choice": "RIGHT", "trial_number":2,"observed_reward":1,"unobserved_reward":0},{"RT":3393,"time": "2018-08-15 01:42:59pm", "schedule_type": "STATIC", "schedule_name": "random_10", "is_biased_choice":true,"side_choice": "RIGHT", "trial_number":3,"observed_reward":0,"unobserved_reward":0},{"RT":2775,"time": "2018-08-15 01:43:01pm", "schedule_type": "STATIC", "schedule_name": "random_10", "is_biased_choice":false,"side_choice": "LEFT", "trial_number":4,"observed_reward":0,"unobserved_reward":0},{"RT":2657,"time": "2018-08-15 01:43:04pm", "schedule_type": "STATIC", "schedule_name": "random_10", "is_biased_choice":true,"side_choice": "RIGHT", "trial_number":5,"observed_reward":0,"unobserved_reward":0},{"RT":3192,"time": "2018-08-15 01:43:07pm", "schedule_type": "STATIC", "schedule_name": "random_10", "is_biased_choice":false,"side_choice": "LEFT", "trial_number":6,"observed_reward":1,"unobserved_reward":1},{"RT":2519,"time": "2018-08-15 01:43:10pm", "schedule_type": "STATIC", "schedule_name": "random_10", "is_biased_choice":false,"side_choice": "LEFT", "trial_number":7,"observed_reward":0,"unobserved_reward":1},{"RT":2992,"time": "2018-08-15 01:43:13pm", "schedule_type": "STATIC", "schedule_name": "random_10", "is_biased_choice":true,"side_choice": "RIGHT", "trial_number":8,"observed_reward":0,"unobserved_reward":0},{"RT":2632,"time": "2018-08-15 01:43:15pm", "schedule_type": "STATIC", "schedule_name": "random_10", "is_biased_choice":false,"side_choice": "LEFT", "trial_number":9,"observed_reward":0,"unobserved_reward":0},{"RT":2466,"time": "2018-08-15 01:43:18pm", "schedule_type": "STATIC", "schedule_name": "random_10", "is_biased_choice":true,"side_choice": "RIGHT", "trial_number":10,"observed_reward":1,"unobserved_reward":0},{"RT":2952,"time": "2018-08-15 01:43:21pm", "schedule_type": "STATIC", "schedule_name": "random_10", "is_biased_choice":true,"side_choice": "RIGHT", "trial_number":11,"observed_reward":0,"unobserved_reward":1},{"RT":2520,"time": "2018-08-15 01:43:23pm", "schedule_type": "STATIC", "schedule_name": "random_10", "is_biased_choice":false,"side_choice": "LEFT", "trial_number":12,"observed_reward":0,"unobserved_reward":1},{"RT":2527,"time": "2018-08-15 01:43:26pm", "schedule_type": "STATIC", "schedule_name": "random_10", "is_biased_choice":true,"side_choice": "RIGHT", "trial_number":13,"observed_reward":0,"unobserved_reward":1},{"RT":2385,"time": "2018-08-15 01:43:28pm", "schedule_type": "STATIC", "schedule_name": "random_10", "is_biased_choice":false,"side_choice": "LEFT", "trial_number":14,"observed_reward":1,"unobserved_reward":0},{"RT":2512,"time": "2018-08-15 01:43:31pm", "schedule_type": "STATIC", "schedule_name": "random_10", "is_biased_choice":false,"side_choice": "LEFT", "trial_number":15,"observed_reward":0,"unobserved_reward":0},{"RT":6424,"time": "2018-08-15 01:43:37pm", "schedule_type": "STATIC", "schedule_name": "random_10", "is_biased_choice":true,"side_choice": "RIGHT", "trial_number":16,"observed_reward":0,"unobserved_reward":0},{"RT":2359,"time": "2018-08-15 01:43:40pm", "schedule_type": "STATIC", "schedule_name": "random_10", "is_biased_choice":false,"side_choice": "LEFT", "trial_number":17,"observed_reward":1,"unobserved_reward":1},{"RT":2728,"time": "2018-08-15 01:43:42pm", "schedule_type": "STATIC", "schedule_name": "random_10", "is_biased_choice":false,"side_choice": "LEFT", "trial_number":18,"observed_reward":1,"unobserved_reward":0},{"RT":3880,"time": "2018-08-15 01:43:46pm", "schedule_type": "STATIC", "schedule_name": "random_10", "is_biased_choice":false,"side_choice": "LEFT", "trial_number":19,"observed_reward":1,"unobserved_reward":0},{"RT":7951,"time": "2018-08-15 01:43:54pm", "schedule_type": "STATIC", "schedule_name": "random_10", "is_biased_choice":false,"side_choice": "LEFT", "trial_number":20,"observed_reward":0,"unobserved_reward":0},{"RT":2689,"time": "2018-08-15 01:43:57pm", "schedule_type": "STATIC", "schedule_name": "random_10", "is_biased_choice":true,"side_choice": "RIGHT", "trial_number":21,"observed_reward":0,"unobserved_reward":0},{"RT":2823,"time": "2018-08-15 01:43:59pm", "schedule_type": "STATIC", "schedule_name": "random_10", "is_biased_choice":false,"side_choice": "LEFT", "trial_number":22,"observed_reward":0,"unobserved_reward":0},{"RT":2336,"time": "2018-08-15 01:44:02pm", "schedule_type": "STATIC", "schedule_name": "random_10", "is_biased_choice":true,"side_choice": "RIGHT", "trial_number":23,"observed_reward":0,"unobserved_reward":0},{"RT":2561,"time": "2018-08-15 01:44:04pm", "schedule_type": "STATIC", "schedule_name": "random_10", "is_biased_choice":false,"side_choice": "LEFT", "trial_number":24,"observed_reward":0,"unobserved_reward":0},{"RT":2248,"time": "2018-08-15 01:44:07pm", "schedule_type": "STATIC", "schedule_name": "random_10", "is_biased_choice":true,"side_choice": "RIGHT", "trial_number":25,"observed_reward":1,"unobserved_reward":0},{"RT":6079,"time": "2018-08-15 01:44:13pm", "schedule_type": "STATIC", "schedule_name": "random_10", "is_biased_choice":false,"side_choice": "LEFT", "trial_number":26,"observed_reward":0,"unobserved_reward":0},{"RT":5506,"time": "2018-08-15 01:44:18pm", "schedule_type": "STATIC", "schedule_name": "random_10", "is_biased_choice":true,"side_choice": "RIGHT", "trial_number":27,"observed_reward":0,"unobserved_reward":1},{"RT":2849,"time": "2018-08-15 01:44:21pm", "schedule_type": "STATIC", "schedule_name": "random_10", "is_biased_choice":false,"side_choice": "LEFT", "trial_number":28,"observed_reward":0,"unobserved_reward":0},{"RT":2326,"time": "2018-08-15 01:44:24pm", "schedule_type": "STATIC", "schedule_name": "random_10", "is_biased_choice":true,"side_choice": "RIGHT", "trial_number":29,"observed_reward":0,"unobserved_reward":0},{"RT":4097,"time": "2018-08-15 01:44:27pm", "schedule_type": "STATIC", "schedule_name": "random_10", "is_biased_choice":true,"side_choice": "RIGHT", "trial_number":30,"observed_reward":0,"unobserved_reward":1},{"RT":2792,"time": "2018-08-15 01:44:31pm", "schedule_type": "STATIC", "schedule_name": "random_10", "is_biased_choice":true,"side_choice": "RIGHT", "trial_number":31,"observed_reward":1,"unobserved_reward":1},{"RT":4399,"time": "2018-08-15 01:44:35pm", "schedule_type": "STATIC", "schedule_name": "random_10", "is_biased_choice":true,"side_choice": "RIGHT", "trial_number":32,"observed_reward":1,"unobserved_reward":0},{"RT":18928,"time": "2018-08-15 01:44:54pm", "schedule_type": "STATIC", "schedule_name": "random_10", "is_biased_choice":false,"side_choice": "LEFT", "trial_number":33,"observed_reward":0,"unobserved_reward":0},{"RT":5199,"time": "2018-08-15 01:44:59pm", "schedule_type": "STATIC", "schedule_name": "random_10", "is_biased_choice":true,"side_choice": "RIGHT", "trial_number":34,"observed_reward":0,"unobserved_reward":0},{"RT":2424,"time": "2018-08-15 01:45:01pm", "schedule_type": "STATIC", "schedule_name": "random_10", "is_biased_choice":false,"side_choice": "LEFT", "trial_number":35,"observed_reward":1,"unobserved_reward":0},{"RT":2720,"time": "2018-08-15 01:45:04pm", "schedule_type": "STATIC", "schedule_name": "random_10", "is_biased_choice":false,"side_choice": "LEFT", "trial_number":36,"observed_reward":0,"unobserved_reward":0},{"RT":3304,"time": "2018-08-15 01:45:07pm", "schedule_type": "STATIC", "schedule_name": "random_10", "is_biased_choice":true,"side_choice": "RIGHT", "trial_number":37,"observed_reward":0,"unobserved_reward":0},{"RT":2288,"time": "2018-08-15 01:45:10pm", "schedule_type": "STATIC", "schedule_name": "random_10", "is_biased_choice":false,"side_choice": "LEFT", "trial_number":38,"observed_reward":0,"unobserved_reward":1},{"RT":2432,"time": "2018-08-15 01:45:12pm", "schedule_type": "STATIC", "schedule_name": "random_10", "is_biased_choice":true,"side_choice": "RIGHT", "trial_number":39,"observed_reward":0,"unobserved_reward":1},{"RT":2576,"time": "2018-08-15 01:45:15pm", "schedule_type": "STATIC", "schedule_name": "random_10", "is_biased_choice":true,"side_choice": "RIGHT", "trial_number":40,"observed_reward":0,"unobserved_reward":0},{"RT":2480,"time": "2018-08-15 01:45:17pm", "schedule_type": "STATIC", "schedule_name": "random_10", "is_biased_choice":false,"side_choice": "LEFT", "trial_number":41,"observed_reward":0,"unobserved_reward":0},{"RT":2513,"time": "2018-08-15 01:45:20pm", "schedule_type": "STATIC", "schedule_name": "random_10", "is_biased_choice":false,"side_choice": "LEFT", "trial_number":42,"observed_reward":1,"unobserved_reward":0},{"RT":2512,"time": "2018-08-15 01:45:24pm", "schedule_type": "STATIC", "schedule_name": "random_10", "is_biased_choice":false,"side_choice": "LEFT", "trial_number":43,"observed_reward":0,"unobserved_reward":0},{"RT":2816,"time": "2018-08-15 01:45:25pm", "schedule_type": "STATIC", "schedule_name": "random_10", "is_biased_choice":false,"side_choice": "LEFT", "trial_number":44,"observed_reward":1,"unobserved_reward":0},{"RT":2888,"time": "2018-08-15 01:45:28pm", "schedule_type": "STATIC", "schedule_name": "random_10", "is_biased_choice":true,"side_choice": "RIGHT", "trial_number":45,"observed_reward":1,"unobserved_reward":1},{"RT":2912,"time": "2018-08-15 01:45:31pm", "schedule_type": "STATIC", "schedule_name": "random_10", "is_biased_choice":false,"side_choice": "LEFT", "trial_number":46,"observed_reward":0,"unobserved_reward":0},{"RT":2647,"time": "2018-08-15 01:45:34pm", "schedule_type": "STATIC", "schedule_name": "random_10", "is_biased_choice":false,"side_choice": "LEFT", "trial_number":47,"observed_reward":0,"unobserved_reward":1},{"RT":2608,"time": "2018-08-15 01:45:36pm", "schedule_type": "STATIC", "schedule_name": "random_10", "is_biased_choice":true,"side_choice": "RIGHT", "trial_number":48,"observed_reward":0,"unobserved_reward":0},{"RT":5040,"time": "2018-08-15 01:45:41pm", "schedule_type": "STATIC", "schedule_name": "random_10", "is_biased_choice":true,"side_choice": "RIGHT", "trial_number":49,"observed_reward":0,"unobserved_reward":0},{"RT":2544,"time": "2018-08-15 01:45:44pm", "schedule_type": "STATIC", "schedule_name": "random_10", "is_biased_choice":true,"side_choice": "RIGHT", "trial_number":50,"observed_reward":0,"unobserved_reward":0},{"RT":2624,"time": "2018-08-15 01:45:46pm", "schedule_type": "STATIC", "schedule_name": "random_10", "is_biased_choice":false,"side_choice": "LEFT", "trial_number":51,"observed_reward":0,"unobserved_reward":0},{"RT":2767,"time": "2018-08-15 01:45:49pm", "schedule_type": "STATIC", "schedule_name": "random_10", "is_biased_choice":true,"side_choice": "RIGHT", "trial_number":52,"observed_reward":0,"unobserved_reward":0},{"RT":3336,"time": "2018-08-15 01:45:52pm", "schedule_type": "STATIC", "schedule_name": "random_10", "is_biased_choice":false,"side_choice": "LEFT", "trial_number":53,"observed_reward":0,"unobserved_reward":0},{"RT":2400,"time": "2018-08-15 01:45:55pm", "schedule_type": "STATIC", "schedule_name": "random_10", "is_biased_choice":true,"side_choice": "RIGHT", "trial_number":54,"observed_reward":0,"unobserved_reward":1},{"RT":2496,"time": "2018-08-15 01:45:57pm", "schedule_type": "STATIC", "schedule_name": "random_10", "is_biased_choice":false,"side_choice": "LEFT", "trial_number":55,"observed_reward":0,"unobserved_reward":0},{"RT":2888,"time": "2018-08-15 01:46:00pm", "schedule_type": "STATIC", "schedule_name": "random_10", "is_biased_choice":true,"side_choice": "RIGHT", "trial_number":56,"observed_reward":1,"unobserved_reward":0},{"RT":2816,"time": "2018-08-15 01:46:03pm", "schedule_type": "STATIC", "schedule_name": "random_10", "is_biased_choice":false,"side_choice": "LEFT", "trial_number":57,"observed_reward":0,"unobserved_reward":1},{"RT":4088,"time": "2018-08-15 01:46:07pm", "schedule_type": "STATIC", "schedule_name": "random_10", "is_biased_choice":true,"side_choice": "RIGHT", "trial_number":58,"observed_reward":0,"unobserved_reward":0},{"RT":2416,"time": "2018-08-15 01:46:10pm", "schedule_type": "STATIC", "schedule_name": "random_10", "is_biased_choice":true,"side_choice": "RIGHT", "trial_number":59,"observed_reward":1,"unobserved_reward":0},{"RT":7214,"time": "2018-08-15 01:46:17pm", "schedule_type": "STATIC", "schedule_name": "random_10", "is_biased_choice":true,"side_choice": "RIGHT", "trial_number":60,"observed_reward":0,"unobserved_reward":0},{"RT":2484,"time": "2018-08-15 01:46:19pm", "schedule_type": "STATIC", "schedule_name": "random_10", "is_biased_choice":false,"side_choice": "LEFT", "trial_number":61,"observed_reward":0,"unobserved_reward":1},{"RT":3248,"time": "2018-08-15 01:46:22pm", "schedule_type": "STATIC", "schedule_name": "random_10", "is_biased_choice":false,"side_choice": "LEFT", "trial_number":62,"observed_reward":0,"unobserved_reward":1},{"RT":2664,"time": "2018-08-15 01:46:27pm", "schedule_type": "STATIC", "schedule_name": "random_10", "is_biased_choice":false,"side_choice": "LEFT", "trial_number":63,"observed_reward":0,"unobserved_reward":0},{"RT":3183,"time": "2018-08-15 01:46:28pm", "schedule_type": "STATIC", "schedule_name": "random_10", "is_biased_choice":true,"side_choice": "RIGHT", "trial_number":64,"observed_reward":1,"unobserved_reward":0},{"RT":3513,"time": "2018-08-15 01:46:32pm", "schedule_type": "STATIC", "schedule_name": "random_10", "is_biased_choice":false,"side_choice": "LEFT", "trial_number":65,"observed_reward":1,"unobserved_reward":0},{"RT":2735,"time": "2018-08-15 01:46:34pm", "schedule_type": "STATIC", "schedule_name": "random_10", "is_biased_choice":true,"side_choice": "RIGHT", "trial_number":66,"observed_reward":1,"unobserved_reward":0},{"RT":3675,"time": "2018-08-15 01:46:38pm", "schedule_type": "STATIC", "schedule_name": "random_10", "is_biased_choice":true,"side_choice": "RIGHT", "trial_number":67,"observed_reward":1,"unobserved_reward":0},{"RT":2661,"time": "2018-08-15 01:46:41pm", "schedule_type": "STATIC", "schedule_name": "random_10", "is_biased_choice":true,"side_choice": "RIGHT", "trial_number":68,"observed_reward":0,"unobserved_reward":0},{"RT":2464,"time": "2018-08-15 01:46:43pm", "schedule_type": "STATIC", "schedule_name": "random_10", "is_biased_choice":false,"side_choice": "LEFT", "trial_number":69,"observed_reward":1,"unobserved_reward":0},{"RT":2616,"time": "2018-08-15 01:46:46pm", "schedule_type": "STATIC", "schedule_name": "random_10", "is_biased_choice":false,"side_choice": "LEFT", "trial_number":70,"observed_reward":0,"unobserved_reward":0},{"RT":2480,"time": "2018-08-15 01:46:48pm", "schedule_type": "STATIC", "schedule_name": "random_10", "is_biased_choice":true,"side_choice": "RIGHT", "trial_number":71,"observed_reward":0,"unobserved_reward":0},{"RT":2496,"time": "2018-08-15 01:46:51pm", "schedule_type": "STATIC", "schedule_name": "random_10", "is_biased_choice":true,"side_choice": "RIGHT", "trial_number":72,"observed_reward":0,"unobserved_reward":0},{"RT":2239,"time": "2018-08-15 01:46:53pm", "schedule_type": "STATIC", "schedule_name": "random_10", "is_biased_choice":false,"side_choice": "LEFT", "trial_number":73,"observed_reward":0,"unobserved_reward":0},{"RT":2576,"time": "2018-08-15 01:46:56pm", "schedule_type": "STATIC", "schedule_name": "random_10", "is_biased_choice":true,"side_choice": "RIGHT", "trial_number":74,"observed_reward":0,"unobserved_reward":0},{"RT":3161,"time": "2018-08-15 01:46:59pm", "schedule_type": "STATIC", "schedule_name": "random_10", "is_biased_choice":true,"side_choice": "RIGHT", "trial_number":75,"observed_reward":0,"unobserved_reward":0},{"RT":2303,"time": "2018-08-15 01:47:01pm", "schedule_type": "STATIC", "schedule_name": "random_10", "is_biased_choice":false,"side_choice": "LEFT", "trial_number":76,"observed_reward":0,"unobserved_reward":0},{"RT":2432,"time": "2018-08-15 01:47:04pm", "schedule_type": "STATIC", "schedule_name": "random_10", "is_biased_choice":true,"side_choice": "RIGHT", "trial_number":77,"observed_reward":0,"unobserved_reward":0},{"RT":2215,"time": "2018-08-15 01:47:06pm", "schedule_type": "STATIC", "schedule_name": "random_10", "is_biased_choice":true,"side_choice": "RIGHT", "trial_number":78,"observed_reward":0,"unobserved_reward":0},{"RT":2289,"time": "2018-08-15 01:47:08pm", "schedule_type": "STATIC", "schedule_name": "random_10", "is_biased_choice":true,"side_choice": "RIGHT", "trial_number":79,"observed_reward":1,"unobserved_reward":0},{"RT":2456,"time": "2018-08-15 01:47:10pm", "schedule_type": "STATIC", "schedule_name": "random_10", "is_biased_choice":false,"side_choice": "LEFT", "trial_number":80,"observed_reward":1,"unobserved_reward":0},{"RT":2856,"time": "2018-08-15 01:47:14pm", "schedule_type": "STATIC", "schedule_name": "random_10", "is_biased_choice":false,"side_choice": "LEFT", "trial_number":81,"observed_reward":0,"unobserved_reward":0},{"RT":2216,"time": "2018-08-15 01:47:15pm", "schedule_type": "STATIC", "schedule_name": "random_10", "is_biased_choice":true,"side_choice": "RIGHT", "trial_number":82,"observed_reward":0,"unobserved_reward":0},{"RT":2280,"time": "2018-08-15 01:47:18pm", "schedule_type": "STATIC", "schedule_name": "random_10", "is_biased_choice":false,"side_choice": "LEFT", "trial_number":83,"observed_reward":1,"unobserved_reward":1},{"RT":2266,"time": "2018-08-15 01:47:20pm", "schedule_type": "STATIC", "schedule_name": "random_10", "is_biased_choice":false,"side_choice": "LEFT", "trial_number":84,"observed_reward":0,"unobserved_reward":0},{"RT":2368,"time": "2018-08-15 01:47:23pm", "schedule_type": "STATIC", "schedule_name": "random_10", "is_biased_choice":true,"side_choice": "RIGHT", "trial_number":85,"observed_reward":0,"unobserved_reward":0},{"RT":2663,"time": "2018-08-15 01:47:25pm", "schedule_type": "STATIC", "schedule_name": "random_10", "is_biased_choice":false,"side_choice": "LEFT", "trial_number":86,"observed_reward":0,"unobserved_reward":1},{"RT":2792,"time": "2018-08-15 01:47:29pm", "schedule_type": "STATIC", "schedule_name": "random_10", "is_biased_choice":true,"side_choice": "RIGHT", "trial_number":87,"observed_reward":0,"unobserved_reward":1},{"RT":2576,"time": "2018-08-15 01:47:30pm", "schedule_type": "STATIC", "schedule_name": "random_10", "is_biased_choice":false,"side_choice": "LEFT", "trial_number":88,"observed_reward":1,"unobserved_reward":0},{"RT":2368,"time": "2018-08-15 01:47:33pm", "schedule_type": "STATIC", "schedule_name": "random_10", "is_biased_choice":false,"side_choice": "LEFT", "trial_number":89,"observed_reward":0,"unobserved_reward":0},{"RT":2816,"time": "2018-08-15 01:47:36pm", "schedule_type": "STATIC", "schedule_name": "random_10", "is_biased_choice":false,"side_choice": "LEFT", "trial_number":90,"observed_reward":1,"unobserved_reward":0},{"RT":3000,"time": "2018-08-15 01:47:39pm", "schedule_type": "STATIC", "schedule_name": "random_10", "is_biased_choice":false,"side_choice": "LEFT", "trial_number":91,"observed_reward":0,"unobserved_reward":0},{"RT":2424,"time": "2018-08-15 01:47:41pm", "schedule_type": "STATIC", "schedule_name": "random_10", "is_biased_choice":false,"side_choice": "LEFT", "trial_number":92,"observed_reward":0,"unobserved_reward":0},{"RT":2552,"time": "2018-08-15 01:47:44pm", "schedule_type": "STATIC", "schedule_name": "random_10", "is_biased_choice":false,"side_choice": "LEFT", "trial_number":93,"observed_reward":0,"unobserved_reward":0},{"RT":2343,"time": "2018-08-15 01:47:46pm", "schedule_type": "STATIC", "schedule_name": "random_10", "is_biased_choice":false,"side_choice": "LEFT", "trial_number":94,"observed_reward":1,"unobserved_reward":0},{"RT":2817,"time": "2018-08-15 01:47:49pm", "schedule_type": "STATIC", "schedule_name": "random_10", "is_biased_choice":true,"side_choice": "RIGHT", "trial_number":95,"observed_reward":0,"unobserved_reward":0},{"RT":2408,"time": "2018-08-15 01:47:51pm", "schedule_type": "STATIC", "schedule_name": "random_10", "is_biased_choice":false,"side_choice": "LEFT", "trial_number":96,"observed_reward":0,"unobserved_reward":0},{"RT":2487,"time": "2018-08-15 01:47:54pm", "schedule_type": "STATIC", "schedule_name": "random_10", "is_biased_choice":true,"side_choice": "RIGHT", "trial_number":97,"observed_reward":0,"unobserved_reward":0},{"RT":2608,"time": "2018-08-15 01:47:56pm", "schedule_type": "STATIC", "schedule_name": "random_10", "is_biased_choice":false,"side_choice": "LEFT", "trial_number":98,"observed_reward":0,"unobserved_reward":1},