[{"RT":11367,"time": "2018-07-29 03:45:33pm", "schedule_type": "STATIC", "schedule_name": "random_7", "is_biased_choice":false,"side_choice": "LEFT", "trial_number":0,"observed_reward":0,"unobserved_reward":1},{"RT":6783,"time": "2018-07-29 03:45:39pm", "schedule_type": "STATIC", "schedule_name": "random_7", "is_biased_choice":true,"side_choice": "RIGHT", "trial_number":1,"observed_reward":0,"unobserved_reward":0},{"RT":9656,"time": "2018-07-29 03:45:49pm", "schedule_type": "STATIC", "schedule_name": "random_7", "is_biased_choice":false,"side_choice": "LEFT", "trial_number":2,"observed_reward":0,"unobserved_reward":1},{"RT":3089,"time": "2018-07-29 03:45:52pm", "schedule_type": "STATIC", "schedule_name": "random_7", "is_biased_choice":true,"side_choice": "RIGHT", "trial_number":3,"observed_reward":0,"unobserved_reward":0},{"RT":3135,"time": "2018-07-29 03:45:56pm", "schedule_type": "STATIC", "schedule_name": "random_7", "is_biased_choice":true,"side_choice": "RIGHT", "trial_number":4,"observed_reward":1,"unobserved_reward":0},{"RT":3919,"time": "2018-07-29 03:46:00pm", "schedule_type": "STATIC", "schedule_name": "random_7", "is_biased_choice":true,"side_choice": "RIGHT", "trial_number":5,"observed_reward":0,"unobserved_reward":0},{"RT":3497,"time": "2018-07-29 03:46:03pm", "schedule_type": "STATIC", "schedule_name": "random_7", "is_biased_choice":false,"side_choice": "LEFT", "trial_number":6,"observed_reward":0,"unobserved_reward":0},{"RT":3305,"time": "2018-07-29 03:46:07pm", "schedule_type": "STATIC", "schedule_name": "random_7", "is_biased_choice":true,"side_choice": "RIGHT", "trial_number":7,"observed_reward":1,"unobserved_reward":0},{"RT":3704,"time": "2018-07-29 03:46:10pm", "schedule_type": "STATIC", "schedule_name": "random_7", "is_biased_choice":false,"side_choice": "LEFT", "trial_number":8,"observed_reward":1,"unobserved_reward":0},{"RT":3240,"time": "2018-07-29 03:46:14pm", "schedule_type": "STATIC", "schedule_name": "random_7", "is_biased_choice":true,"side_choice": "RIGHT", "trial_number":9,"observed_reward":1,"unobserved_reward":0},{"RT":3376,"time": "2018-07-29 03:46:16pm", "schedule_type": "STATIC", "schedule_name": "random_7", "is_biased_choice":false,"side_choice": "LEFT", "trial_number":10,"observed_reward":0,"unobserved_reward":0},{"RT":2888,"time": "2018-07-29 03:46:19pm", "schedule_type": "STATIC", "schedule_name": "random_7", "is_biased_choice":true,"side_choice": "RIGHT", "trial_number":11,"observed_reward":0,"unobserved_reward":0},{"RT":3880,"time": "2018-07-29 03:46:23pm", "schedule_type": "STATIC", "schedule_name": "random_7", "is_biased_choice":true,"side_choice": "RIGHT", "trial_number":12,"observed_reward":0,"unobserved_reward":0},{"RT":3049,"time": "2018-07-29 03:46:26pm", "schedule_type": "STATIC", "schedule_name": "random_7", "is_biased_choice":false,"side_choice": "LEFT", "trial_number":13,"observed_reward":0,"unobserved_reward":0},{"RT":2575,"time": "2018-07-29 03:46:29pm", "schedule_type": "STATIC", "schedule_name": "random_7", "is_biased_choice":true,"side_choice": "RIGHT", "trial_number":14,"observed_reward":0,"unobserved_reward":1},{"RT":2480,"time": "2018-07-29 03:46:31pm", "schedule_type": "STATIC", "schedule_name": "random_7", "is_biased_choice":true,"side_choice": "RIGHT", "trial_number":15,"observed_reward":1,"unobserved_reward":0},{"RT":2671,"time": "2018-07-29 03:46:34pm", "schedule_type": "STATIC", "schedule_name": "random_7", "is_biased_choice":true,"side_choice": "RIGHT", "trial_number":16,"observed_reward":1,"unobserved_reward":1},{"RT":2608,"time": "2018-07-29 03:46:37pm", "schedule_type": "STATIC", "schedule_name": "random_7", "is_biased_choice":true,"side_choice": "RIGHT", "trial_number":17,"observed_reward":0,"unobserved_reward":1},{"RT":2400,"time": "2018-07-29 03:46:39pm", "schedule_type": "STATIC", "schedule_name": "random_7", "is_biased_choice":true,"side_choice": "RIGHT", "trial_number":18,"observed_reward":0,"unobserved_reward":0},{"RT":2425,"time": "2018-07-29 03:46:41pm", "schedule_type": "STATIC", "schedule_name": "random_7", "is_biased_choice":true,"side_choice": "RIGHT", "trial_number":19,"observed_reward":0,"unobserved_reward":0},{"RT":2607,"time": "2018-07-29 03:46:44pm", "schedule_type": "STATIC", "schedule_name": "random_7", "is_biased_choice":false,"side_choice": "LEFT", "trial_number":20,"observed_reward":1,"unobserved_reward":1},{"RT":2480,"time": "2018-07-29 03:46:46pm", "schedule_type": "STATIC", "schedule_name": "random_7", "is_biased_choice":false,"side_choice": "LEFT", "trial_number":21,"observed_reward":0,"unobserved_reward":1},{"RT":2576,"time": "2018-07-29 03:46:49pm", "schedule_type": "STATIC", "schedule_name": "random_7", "is_biased_choice":false,"side_choice": "LEFT", "trial_number":22,"observed_reward":0,"unobserved_reward":0},{"RT":2880,"time": "2018-07-29 03:46:52pm", "schedule_type": "STATIC", "schedule_name": "random_7", "is_biased_choice":false,"side_choice": "LEFT", "trial_number":23,"observed_reward":0,"unobserved_reward":1},{"RT":2609,"time": "2018-07-29 03:46:55pm", "schedule_type": "STATIC", "schedule_name": "random_7", "is_biased_choice":true,"side_choice": "RIGHT", "trial_number":24,"observed_reward":0,"unobserved_reward":0},{"RT":2327,"time": "2018-07-29 03:46:57pm", "schedule_type": "STATIC", "schedule_name": "random_7", "is_biased_choice":false,"side_choice": "LEFT", "trial_number":25,"observed_reward":0,"unobserved_reward":1},{"RT":2664,"time": "2018-07-29 03:47:00pm", "schedule_type": "STATIC", "schedule_name": "random_7", "is_biased_choice":false,"side_choice": "LEFT", "trial_number":26,"observed_reward":0,"unobserved_reward":0},{"RT":2624,"time": "2018-07-29 03:47:02pm", "schedule_type": "STATIC", "schedule_name": "random_7", "is_biased_choice":false,"side_choice": "LEFT", "trial_number":27,"observed_reward":0,"unobserved_reward":0},{"RT":2423,"time": "2018-07-29 03:47:05pm", "schedule_type": "STATIC", "schedule_name": "random_7", "is_biased_choice":true,"side_choice": "RIGHT", "trial_number":28,"observed_reward":1,"unobserved_reward":1},{"RT":2544,"time": "2018-07-29 03:47:07pm", "schedule_type": "STATIC", "schedule_name": "random_7", "is_biased_choice":true,"side_choice": "RIGHT", "trial_number":29,"observed_reward":0,"unobserved_reward":0},{"RT":2328,"time": "2018-07-29 03:47:09pm", "schedule_type": "STATIC", "schedule_name": "random_7", "is_biased_choice":true,"side_choice": "RIGHT", "trial_number":30,"observed_reward":1,"unobserved_reward":0},{"RT":2495,"time": "2018-07-29 03:47:12pm", "schedule_type": "STATIC", "schedule_name": "random_7", "is_biased_choice":true,"side_choice": "RIGHT", "trial_number":31,"observed_reward":0,"unobserved_reward":0},{"RT":2336,"time": "2018-07-29 03:47:14pm", "schedule_type": "STATIC", "schedule_name": "random_7", "is_biased_choice":true,"side_choice": "RIGHT", "trial_number":32,"observed_reward":1,"unobserved_reward":0},{"RT":3176,"time": "2018-07-29 03:47:18pm", "schedule_type": "STATIC", "schedule_name": "random_7", "is_biased_choice":true,"side_choice": "RIGHT", "trial_number":33,"observed_reward":0,"unobserved_reward":0},{"RT":4356,"time": "2018-07-29 03:47:22pm", "schedule_type": "STATIC", "schedule_name": "random_7", "is_biased_choice":true,"side_choice": "RIGHT", "trial_number":34,"observed_reward":0,"unobserved_reward":0},{"RT":2828,"time": "2018-07-29 03:47:25pm", "schedule_type": "STATIC", "schedule_name": "random_7", "is_biased_choice":true,"side_choice": "RIGHT", "trial_number":35,"observed_reward":0,"unobserved_reward":0},{"RT":2352,"time": "2018-07-29 03:47:27pm", "schedule_type": "STATIC", "schedule_name": "random_7", "is_biased_choice":true,"side_choice": "RIGHT", "trial_number":36,"observed_reward":0,"unobserved_reward":0},{"RT":2552,"time": "2018-07-29 03:47:30pm", "schedule_type": "STATIC", "schedule_name": "random_7", "is_biased_choice":false,"side_choice": "LEFT", "trial_number":37,"observed_reward":0,"unobserved_reward":1},{"RT":2352,"time": "2018-07-29 03:47:32pm", "schedule_type": "STATIC", "schedule_name": "random_7", "is_biased_choice":true,"side_choice": "RIGHT", "trial_number":38,"observed_reward":1,"unobserved_reward":0},{"RT":2816,"time": "2018-07-29 03:47:35pm", "schedule_type": "STATIC", "schedule_name": "random_7", "is_biased_choice":true,"side_choice": "RIGHT", "trial_number":39,"observed_reward":1,"unobserved_reward":0},{"RT":2495,"time": "2018-07-29 03:47:37pm", "schedule_type": "STATIC", "schedule_name": "random_7", "is_biased_choice":true,"side_choice": "RIGHT", "trial_number":40,"observed_reward":0,"unobserved_reward":0},{"RT":2448,"time": "2018-07-29 03:47:40pm", "schedule_type": "STATIC", "schedule_name": "random_7", "is_biased_choice":true,"side_choice": "RIGHT", "trial_number":41,"observed_reward":0,"unobserved_reward":1},{"RT":2313,"time": "2018-07-29 03:47:42pm", "schedule_type": "STATIC", "schedule_name": "random_7", "is_biased_choice":true,"side_choice": "RIGHT", "trial_number":42,"observed_reward":0,"unobserved_reward":0},{"RT":2455,"time": "2018-07-29 03:47:44pm", "schedule_type": "STATIC", "schedule_name": "random_7", "is_biased_choice":true,"side_choice": "RIGHT", "trial_number":43,"observed_reward":0,"unobserved_reward":1},{"RT":2808,"time": "2018-07-29 03:47:47pm", "schedule_type": "STATIC", "schedule_name": "random_7", "is_biased_choice":true,"side_choice": "RIGHT", "trial_number":44,"observed_reward":0,"unobserved_reward":0},{"RT":2624,"time": "2018-07-29 03:47:50pm", "schedule_type": "STATIC", "schedule_name": "random_7", "is_biased_choice":false,"side_choice": "LEFT", "trial_number":45,"observed_reward":0,"unobserved_reward":0},{"RT":2361,"time": "2018-07-29 03:47:52pm", "schedule_type": "STATIC", "schedule_name": "random_7", "is_biased_choice":true,"side_choice": "RIGHT", "trial_number":46,"observed_reward":0,"unobserved_reward":1},{"RT":2335,"time": "2018-07-29 03:47:55pm", "schedule_type": "STATIC", "schedule_name": "random_7", "is_biased_choice":true,"side_choice": "RIGHT", "trial_number":47,"observed_reward":0,"unobserved_reward":0},{"RT":2312,"time": "2018-07-29 03:47:57pm", "schedule_type": "STATIC", "schedule_name": "random_7", "is_biased_choice":false,"side_choice": "LEFT", "trial_number":48,"observed_reward":1,"unobserved_reward":0},{"RT":2584,"time": "2018-07-29 03:47:59pm", "schedule_type": "STATIC", "schedule_name": "random_7", "is_biased_choice":true,"side_choice": "RIGHT", "trial_number":49,"observed_reward":0,"unobserved_reward":0},{"RT":2687,"time": "2018-07-29 03:48:02pm", "schedule_type": "STATIC", "schedule_name": "random_7", "is_biased_choice":true,"side_choice": "RIGHT", "trial_number":50,"observed_reward":0,"unobserved_reward":1},{"RT":2265,"time": "2018-07-29 03:48:04pm", "schedule_type": "STATIC", "schedule_name": "random_7", "is_biased_choice":false,"side_choice": "LEFT", "trial_number":51,"observed_reward":0,"unobserved_reward":0},{"RT":2266,"time": "2018-07-29 03:48:07pm", "schedule_type": "STATIC", "schedule_name": "random_7", "is_biased_choice":false,"side_choice": "LEFT", "trial_number":52,"observed_reward":0,"unobserved_reward":1},{"RT":2288,"time": "2018-07-29 03:48:09pm", "schedule_type": "STATIC", "schedule_name": "random_7", "is_biased_choice":false,"side_choice": "LEFT", "trial_number":53,"observed_reward":1,"unobserved_reward":0},{"RT":2520,"time": "2018-07-29 03:48:11pm", "schedule_type": "STATIC", "schedule_name": "random_7", "is_biased_choice":false,"side_choice": "LEFT", "trial_number":54,"observed_reward":0,"unobserved_reward":0},{"RT":2336,"time": "2018-07-29 03:48:14pm", "schedule_type": "STATIC", "schedule_name": "random_7", "is_biased_choice":false,"side_choice": "LEFT", "trial_number":55,"observed_reward":0,"unobserved_reward":0},{"RT":2280,"time": "2018-07-29 03:48:16pm", "schedule_type": "STATIC", "schedule_name": "random_7", "is_biased_choice":false,"side_choice": "LEFT", "trial_number":56,"observed_reward":0,"unobserved_reward":0},{"RT":2472,"time": "2018-07-29 03:48:19pm", "schedule_type": "STATIC", "schedule_name": "random_7", "is_biased_choice":true,"side_choice": "RIGHT", "trial_number":57,"observed_reward":1,"unobserved_reward":0},{"RT":2912,"time": "2018-07-29 03:48:21pm", "schedule_type": "STATIC", "schedule_name": "random_7", "is_biased_choice":false,"side_choice": "LEFT", "trial_number":58,"observed_reward":0,"unobserved_reward":0},{"RT":2320,"time": "2018-07-29 03:48:24pm", "schedule_type": "STATIC", "schedule_name": "random_7", "is_biased_choice":true,"side_choice": "RIGHT", "trial_number":59,"observed_reward":0,"unobserved_reward":1},{"RT":2295,"time": "2018-07-29 03:48:26pm", "schedule_type": "STATIC", "schedule_name": "random_7", "is_biased_choice":true,"side_choice": "RIGHT", "trial_number":60,"observed_reward":1,"unobserved_reward":0},{"RT":2729,"time": "2018-07-29 03:48:29pm", "schedule_type": "STATIC", "schedule_name": "random_7", "is_biased_choice":false,"side_choice": "LEFT", "trial_number":61,"observed_reward":0,"unobserved_reward":0},{"RT":2264,"time": "2018-07-29 03:48:31pm", "schedule_type": "STATIC", "schedule_name": "random_7", "is_biased_choice":false,"side_choice": "LEFT", "trial_number":62,"observed_reward":0,"unobserved_reward":0},{"RT":2615,"time": "2018-07-29 03:48:34pm", "schedule_type": "STATIC", "schedule_name": "random_7", "is_biased_choice":true,"side_choice": "RIGHT", "trial_number":63,"observed_reward":0,"unobserved_reward":0},{"RT":2345,"time": "2018-07-29 03:48:36pm", "schedule_type": "STATIC", "schedule_name": "random_7", "is_biased_choice":true,"side_choice": "RIGHT", "trial_number":64,"observed_reward":0,"unobserved_reward":1},{"RT":2240,"time": "2018-07-29 03:48:38pm", "schedule_type": "STATIC", "schedule_name": "random_7", "is_biased_choice":false,"side_choice": "LEFT", "trial_number":65,"observed_reward":1,"unobserved_reward":0},{"RT":2528,"time": "2018-07-29 03:48:41pm", "schedule_type": "STATIC", "schedule_name": "random_7", "is_biased_choice":true,"side_choice": "RIGHT", "trial_number":66,"observed_reward":0,"unobserved_reward":0},{"RT":2527,"time": "2018-07-29 03:48:43pm", "schedule_type": "STATIC", "schedule_name": "random_7", "is_biased_choice":false,"side_choice": "LEFT", "trial_number":67,"observed_reward":1,"unobserved_reward":0},{"RT":2367,"time": "2018-07-29 03:48:46pm", "schedule_type": "STATIC", "schedule_name": "random_7", "is_biased_choice":false,"side_choice": "LEFT", "trial_number":68,"observed_reward":1,"unobserved_reward":1},{"RT":2345,"time": "2018-07-29 03:48:48pm", "schedule_type": "STATIC", "schedule_name": "random_7", "is_biased_choice":false,"side_choice": "LEFT", "trial_number":69,"observed_reward":1,"unobserved_reward":0},{"RT":2359,"time": "2018-07-29 03:48:50pm", "schedule_type": "STATIC", "schedule_name": "random_7", "is_biased_choice":false,"side_choice": "LEFT", "trial_number":70,"observed_reward":0,"unobserved_reward":0},{"RT":2825,"time": "2018-07-29 03:48:53pm", "schedule_type": "STATIC", "schedule_name": "random_7", "is_biased_choice":true,"side_choice": "RIGHT", "trial_number":71,"observed_reward":0,"unobserved_reward":1},{"RT":2343,"time": "2018-07-29 03:48:56pm", "schedule_type": "STATIC", "schedule_name": "random_7", "is_biased_choice":true,"side_choice": "RIGHT", "trial_number":72,"observed_reward":0,"unobserved_reward":0},{"RT":2800,"time": "2018-07-29 03:48:58pm", "schedule_type": "STATIC", "schedule_name": "random_7", "is_biased_choice":false,"side_choice": "LEFT", "trial_number":73,"observed_reward":0,"unobserved_reward":0},{"RT":2265,"time": "2018-07-29 03:49:01pm", "schedule_type": "STATIC", "schedule_name": "random_7", "is_biased_choice":false,"side_choice": "LEFT", "trial_number":74,"observed_reward":0,"unobserved_reward":0},{"RT":2240,"time": "2018-07-29 03:49:03pm", "schedule_type": "STATIC", "schedule_name": "random_7", "is_biased_choice":false,"side_choice": "LEFT", "trial_number":75,"observed_reward":1,"unobserved_reward":0},{"RT":2252,"time": "2018-07-29 03:49:05pm", "schedule_type": "STATIC", "schedule_name": "random_7", "is_biased_choice":false,"side_choice": "LEFT", "trial_number":76,"observed_reward":0,"unobserved_reward":0},{"RT":2288,"time": "2018-07-29 03:49:07pm", "schedule_type": "STATIC", "schedule_name": "random_7", "is_biased_choice":false,"side_choice": "LEFT", "trial_number":77,"observed_reward":0,"unobserved_reward":0},{"RT":2305,"time": "2018-07-29 03:49:10pm", "schedule_type": "STATIC", "schedule_name": "random_7", "is_biased_choice":false,"side_choice": "LEFT", "trial_number":78,"observed_reward":1,"unobserved_reward":0},{"RT":2520,"time": "2018-07-29 03:49:12pm", "schedule_type": "STATIC", "schedule_name": "random_7", "is_biased_choice":false,"side_choice": "LEFT", "trial_number":79,"observed_reward":0,"unobserved_reward":0},{"RT":2431,"time": "2018-07-29 03:49:15pm", "schedule_type": "STATIC", "schedule_name": "random_7", "is_biased_choice":false,"side_choice": "LEFT", "trial_number":80,"observed_reward":0,"unobserved_reward":0},{"RT":2312,"time": "2018-07-29 03:49:17pm", "schedule_type": "STATIC", "schedule_name": "random_7", "is_biased_choice":false,"side_choice": "LEFT", "trial_number":81,"observed_reward":1,"unobserved_reward":0},{"RT":2497,"time": "2018-07-29 03:49:19pm", "schedule_type": "STATIC", "schedule_name": "random_7", "is_biased_choice":false,"side_choice": "LEFT", "trial_number":82,"observed_reward":0,"unobserved_reward":0},{"RT":2367,"time": "2018-07-29 03:49:22pm", "schedule_type": "STATIC", "schedule_name": "random_7", "is_biased_choice":false,"side_choice": "LEFT", "trial_number":83,"observed_reward":0,"unobserved_reward":0},{"RT":2312,"time": "2018-07-29 03:49:24pm", "schedule_type": "STATIC", "schedule_name": "random_7", "is_biased_choice":false,"side_choice": "LEFT", "trial_number":84,"observed_reward":0,"unobserved_reward":1},{"RT":2297,"time": "2018-07-29 03:49:26pm", "schedule_type": "STATIC", "schedule_name": "random_7", "is_biased_choice":false,"side_choice": "LEFT", "trial_number":85,"observed_reward":1,"unobserved_reward":0},{"RT":2464,"time": "2018-07-29 03:49:29pm", "schedule_type": "STATIC", "schedule_name": "random_7", "is_biased_choice":false,"side_choice": "LEFT", "trial_number":86,"observed_reward":0,"unobserved_reward":0},{"RT":2679,"time": "2018-07-29 03:49:32pm", "schedule_type": "STATIC", "schedule_name": "random_7", "is_biased_choice":true,"side_choice": "RIGHT", "trial_number":87,"observed_reward":0,"unobserved_reward":0},{"RT":2560,"time": "2018-07-29 03:49:34pm", "schedule_type": "STATIC", "schedule_name": "random_7", "is_biased_choice":true,"side_choice": "RIGHT", "trial_number":88,"observed_reward":0,"unobserved_reward":0},{"RT":2304,"time": "2018-07-29 03:49:36pm", "schedule_type": "STATIC", "schedule_name": "random_7", "is_biased_choice":false,"side_choice": "LEFT", "trial_number":89,"observed_reward":1,"unobserved_reward":0},{"RT":2417,"time": "2018-07-29 03:49:39pm", "schedule_type": "STATIC", "schedule_name": "random_7", "is_biased_choice":false,"side_choice": "LEFT", "trial_number":90,"observed_reward":0,"unobserved_reward":0},{"RT":2295,"time": "2018-07-29 03:49:41pm", "schedule_type": "STATIC", "schedule_name": "random_7", "is_biased_choice":false,"side_choice": "LEFT", "trial_number":91,"observed_reward":0,"unobserved_reward":0},{"RT":2320,"time": "2018-07-29 03:49:44pm", "schedule_type": "STATIC", "schedule_name": "random_7", "is_biased_choice":false,"side_choice": "LEFT", "trial_number":92,"observed_reward":1,"unobserved_reward":0},{"RT":2648,"time": "2018-07-29 03:49:46pm", "schedule_type": "STATIC", "schedule_name": "random_7", "is_biased_choice":false,"side_choice": "LEFT", "trial_number":93,"observed_reward":0,"unobserved_reward":1},{"RT":2296,"time": "2018-07-29 03:49:48pm", "schedule_type": "STATIC", "schedule_name": "random_7", "is_biased_choice":false,"side_choice": "LEFT", "trial_number":94,"observed_reward":0,"unobserved_reward":0},{"RT":2288,"time": "2018-07-29 03:49:51pm", "schedule_type": "STATIC", "schedule_name": "random_7", "is_biased_choice":false,"side_choice": "LEFT", "trial_number":95,"observed_reward":0,"unobserved_reward":1},{"RT":2416,"time": "2018-07-29 03:49:53pm", "schedule_type": "STATIC", "schedule_name": "random_7", "is_biased_choice":false,"side_choice": "LEFT", "trial_number":96,"observed_reward":0,"unobserved_reward":0},{"RT":2608,"time": "2018-07-29 03:49:56pm", "schedule_type": "STATIC", "schedule_name": "random_7", "is_biased_choice":false,"side_choice": "LEFT", "trial_number":97,"observed_reward":0,"unobserved_reward":1},{"RT":2296,"time": "2018-07-29 03:49:58pm", "schedule_type": "STATIC", "schedule_name": "random_7", "is_biased_choice":false,"side_choice": "LEFT", "trial_number":98,"observed_reward":0,"unobserved_reward":0},