trial_number, time, schedule_type, schedule_name, is_biased_choice, side_choice, RT, observed_reward, unobserved_reward, biased_reward, unbiased_reward
0,2018-07-29 03:50:46pm, STATIC, random_7, true, LEFT, 5079, 1, 0, 1, 0
1,2018-07-29 03:50:50pm, STATIC, random_7, false, RIGHT, 3864, 0, 0, 0, 0
2,2018-07-29 03:50:52pm, STATIC, random_7, false, RIGHT, 2719, 0, 1, 1, 0
3,2018-07-29 03:50:55pm, STATIC, random_7, true, LEFT, 2681, 0, 0, 0, 0
4,2018-07-29 03:50:58pm, STATIC, random_7, true, LEFT, 2560, 1, 0, 1, 0
5,2018-07-29 03:51:01pm, STATIC, random_7, true, LEFT, 2984, 0, 0, 0, 0
6,2018-07-29 03:51:03pm, STATIC, random_7, false, RIGHT, 2480, 0, 0, 0, 0
7,2018-07-29 03:51:05pm, STATIC, random_7, false, RIGHT, 2430, 0, 1, 1, 0
8,2018-07-29 03:51:08pm, STATIC, random_7, true, LEFT, 2442, 0, 1, 0, 1
9,2018-07-29 03:51:10pm, STATIC, random_7, true, LEFT, 2464, 1, 0, 1, 0
10,2018-07-29 03:51:13pm, STATIC, random_7, true, LEFT, 2401, 0, 0, 0, 0
11,2018-07-29 03:51:15pm, STATIC, random_7, true, LEFT, 2560, 0, 0, 0, 0
12,2018-07-29 03:51:18pm, STATIC, random_7, false, RIGHT, 2471, 0, 0, 0, 0
13,2018-07-29 03:51:20pm, STATIC, random_7, true, LEFT, 2409, 0, 0, 0, 0
14,2018-07-29 03:51:23pm, STATIC, random_7, false, RIGHT, 2304, 1, 0, 0, 1
15,2018-07-29 03:51:25pm, STATIC, random_7, true, LEFT, 2440, 1, 0, 1, 0
16,2018-07-29 03:51:27pm, STATIC, random_7, false, RIGHT, 2376, 1, 1, 1, 1
17,2018-07-29 03:51:30pm, STATIC, random_7, true, LEFT, 2344, 0, 1, 0, 1
18,2018-07-29 03:51:32pm, STATIC, random_7, false, RIGHT, 2313, 0, 0, 0, 0
19,2018-07-29 03:51:34pm, STATIC, random_7, true, LEFT, 2328, 0, 0, 0, 0
20,2018-07-29 03:51:37pm, STATIC, random_7, true, LEFT, 2344, 1, 1, 1, 1
21,2018-07-29 03:51:39pm, STATIC, random_7, false, RIGHT, 2359, 0, 1, 1, 0
22,2018-07-29 03:51:41pm, STATIC, random_7, false, RIGHT, 2325, 0, 0, 0, 0
23,2018-07-29 03:51:44pm, STATIC, random_7, true, LEFT, 2268, 1, 0, 1, 0
24,2018-07-29 03:51:46pm, STATIC, random_7, true, LEFT, 2424, 0, 0, 0, 0
25,2018-07-29 03:51:49pm, STATIC, random_7, true, LEFT, 2417, 1, 0, 1, 0
26,2018-07-29 03:52:05pm, STATIC, random_7, true, LEFT, 16975, 0, 0, 0, 0
27,2018-07-29 03:52:08pm, STATIC, random_7, true, LEFT, 2361, 0, 0, 0, 0
28,2018-07-29 03:52:10pm, STATIC, random_7, false, RIGHT, 2288, 1, 1, 1, 1
29,2018-07-29 03:52:12pm, STATIC, random_7, true, LEFT, 2369, 0, 0, 0, 0
30,2018-07-29 03:52:15pm, STATIC, random_7, false, RIGHT, 2151, 0, 1, 1, 0
31,2018-07-29 03:52:17pm, STATIC, random_7, false, RIGHT, 2216, 0, 0, 0, 0
32,2018-07-29 03:52:19pm, STATIC, random_7, true, LEFT, 2177, 1, 0, 1, 0
33,2018-07-29 03:52:21pm, STATIC, random_7, true, LEFT, 2271, 0, 0, 0, 0
34,2018-07-29 03:52:24pm, STATIC, random_7, true, LEFT, 2304, 0, 0, 0, 0
35,2018-07-29 03:52:26pm, STATIC, random_7, false, RIGHT, 2289, 0, 0, 0, 0
36,2018-07-29 03:52:29pm, STATIC, random_7, false, RIGHT, 3008, 0, 0, 0, 0
37,2018-07-29 03:52:31pm, STATIC, random_7, true, LEFT, 2368, 1, 0, 1, 0
38,2018-07-29 03:52:34pm, STATIC, random_7, true, LEFT, 2481, 1, 0, 1, 0
39,2018-07-29 03:52:36pm, STATIC, random_7, false, RIGHT, 2487, 0, 1, 1, 0
40,2018-07-29 03:52:39pm, STATIC, random_7, true, LEFT, 2432, 0, 0, 0, 0
41,2018-07-29 03:52:41pm, STATIC, random_7, true, LEFT, 2392, 0, 1, 0, 1
42,2018-07-29 03:52:44pm, STATIC, random_7, false, RIGHT, 2616, 0, 0, 0, 0
43,2018-07-29 03:52:46pm, STATIC, random_7, true, LEFT, 2400, 0, 1, 0, 1
44,2018-07-29 03:52:48pm, STATIC, random_7, true, LEFT, 2296, 0, 0, 0, 0
45,2018-07-29 03:52:51pm, STATIC, random_7, false, RIGHT, 2368, 0, 0, 0, 0
46,2018-07-29 03:52:53pm, STATIC, random_7, true, LEFT, 2369, 0, 1, 0, 1
47,2018-07-29 03:52:56pm, STATIC, random_7, true, LEFT, 2647, 0, 0, 0, 0
48,2018-07-29 03:52:58pm, STATIC, random_7, false, RIGHT, 2553, 1, 0, 0, 1
49,2018-07-29 03:53:01pm, STATIC, random_7, false, RIGHT, 2407, 0, 0, 0, 0
50,2018-07-29 03:53:03pm, STATIC, random_7, false, RIGHT, 2361, 1, 0, 0, 1
51,2018-07-29 03:53:05pm, STATIC, random_7, false, RIGHT, 2376, 0, 0, 0, 0
52,2018-07-29 03:53:08pm, STATIC, random_7, true, LEFT, 2353, 1, 0, 1, 0
53,2018-07-29 03:53:10pm, STATIC, random_7, true, LEFT, 2744, 0, 1, 0, 1
54,2018-07-29 03:53:13pm, STATIC, random_7, false, RIGHT, 2541, 0, 0, 0, 0
55,2018-07-29 03:53:15pm, STATIC, random_7, false, RIGHT, 2442, 0, 0, 0, 0
56,2018-07-29 03:53:18pm, STATIC, random_7, true, LEFT, 2247, 0, 0, 0, 0
57,2018-07-29 03:53:20pm, STATIC, random_7, true, LEFT, 2370, 1, 0, 1, 0
58,2018-07-29 03:53:23pm, STATIC, random_7, true, LEFT, 2616, 0, 0, 0, 0
59,2018-07-29 03:53:25pm, STATIC, random_7, true, LEFT, 2320, 0, 1, 0, 1
60,2018-07-29 03:53:27pm, STATIC, random_7, false, RIGHT, 2400, 0, 1, 1, 0
61,2018-07-29 03:53:30pm, STATIC, random_7, true, LEFT, 2639, 0, 0, 0, 0
62,2018-07-29 03:53:33pm, STATIC, random_7, false, RIGHT, 2473, 0, 0, 0, 0
63,2018-07-29 03:53:35pm, STATIC, random_7, true, LEFT, 2352, 0, 0, 0, 0
64,2018-07-29 03:53:37pm, STATIC, random_7, true, LEFT, 2304, 0, 1, 0, 1
65,2018-07-29 03:53:40pm, STATIC, random_7, false, RIGHT, 2440, 1, 0, 0, 1
66,2018-07-29 03:53:42pm, STATIC, random_7, false, RIGHT, 2448, 0, 0, 0, 0
67,2018-07-29 03:53:44pm, STATIC, random_7, true, LEFT, 2408, 0, 1, 0, 1
68,2018-07-29 03:53:47pm, STATIC, random_7, true, LEFT, 2448, 1, 1, 1, 1
69,2018-07-29 03:53:49pm, STATIC, random_7, false, RIGHT, 2354, 1, 0, 0, 1
70,2018-07-29 03:53:52pm, STATIC, random_7, false, RIGHT, 2383, 0, 0, 0, 0
71,2018-07-29 03:53:55pm, STATIC, random_7, true, LEFT, 3056, 0, 1, 0, 1
72,2018-07-29 03:53:57pm, STATIC, random_7, false, RIGHT, 2503, 0, 0, 0, 0
73,2018-07-29 03:54:00pm, STATIC, random_7, false, RIGHT, 2897, 0, 0, 0, 0
74,2018-07-29 03:54:03pm, STATIC, random_7, true, LEFT, 2479, 0, 0, 0, 0
75,2018-07-29 03:54:05pm, STATIC, random_7, true, LEFT, 2362, 0, 1, 0, 1
76,2018-07-29 03:54:08pm, STATIC, random_7, true, LEFT, 2543, 0, 0, 0, 0
77,2018-07-29 03:54:10pm, STATIC, random_7, true, LEFT, 2280, 0, 0, 0, 0
78,2018-07-29 03:54:12pm, STATIC, random_7, false, RIGHT, 2297, 1, 0, 0, 1
79,2018-07-29 03:54:14pm, STATIC, random_7, false, RIGHT, 2399, 0, 0, 0, 0
80,2018-07-29 03:54:17pm, STATIC, random_7, true, LEFT, 2520, 0, 0, 0, 0
81,2018-07-29 03:54:19pm, STATIC, random_7, true, LEFT, 2297, 0, 1, 0, 1
82,2018-07-29 03:54:22pm, STATIC, random_7, false, RIGHT, 2425, 0, 0, 0, 0
83,2018-07-29 03:54:24pm, STATIC, random_7, true, LEFT, 2407, 0, 0, 0, 0
84,2018-07-29 03:54:26pm, STATIC, random_7, false, RIGHT, 2336, 0, 1, 1, 0
85,2018-07-29 03:54:29pm, STATIC, random_7, true, LEFT, 2400, 0, 1, 0, 1
86,2018-07-29 03:54:31pm, STATIC, random_7, true, LEFT, 2288, 0, 0, 0, 0
87,2018-07-29 03:54:34pm, STATIC, random_7, true, LEFT, 2360, 0, 0, 0, 0
88,2018-07-29 03:54:36pm, STATIC, random_7, false, RIGHT, 2360, 0, 0, 0, 0
89,2018-07-29 03:54:38pm, STATIC, random_7, true, LEFT, 2336, 0, 1, 0, 1
90,2018-07-29 03:54:40pm, STATIC, random_7, true, LEFT, 2248, 0, 0, 0, 0
91,2018-07-29 03:54:43pm, STATIC, random_7, true, LEFT, 2344, 0, 0, 0, 0
92,2018-07-29 03:54:45pm, STATIC, random_7, false, RIGHT, 2305, 1, 0, 0, 1
93,2018-07-29 03:54:48pm, STATIC, random_7, false, RIGHT, 2384, 0, 1, 1, 0
94,2018-07-29 03:54:50pm, STATIC, random_7, false, RIGHT, 2319, 0, 0, 0, 0
95,2018-07-29 03:54:52pm, STATIC, random_7, true, LEFT, 2320, 1, 0, 1, 0
96,2018-07-29 03:54:54pm, STATIC, random_7, true, LEFT, 2360, 0, 0, 0, 0
97,2018-07-29 03:54:57pm, STATIC, random_7, false, RIGHT, 2361, 0, 1, 1, 0
98,2018-07-29 03:54:59pm, STATIC, random_7, false, RIGHT, 2304, 0, 0, 0, 0
99,2018-07-29 03:55:02pm, STATIC, random_7, false, RIGHT, 2328, 0, 0, 0, 0
