[{"RT":4173,"time": "2018-08-15 03:28:51pm", "schedule_type": "STATIC", "schedule_name": "random_7", "is_biased_choice":false,"side_choice": "LEFT", "trial_number":0,"observed_reward":0,"unobserved_reward":1},{"RT":3008,"time": "2018-08-15 03:28:54pm", "schedule_type": "STATIC", "schedule_name": "random_7", "is_biased_choice":true,"side_choice": "RIGHT", "trial_number":1,"observed_reward":0,"unobserved_reward":0},{"RT":2110,"time": "2018-08-15 03:28:56pm", "schedule_type": "STATIC", "schedule_name": "random_7", "is_biased_choice":false,"side_choice": "LEFT", "trial_number":2,"observed_reward":0,"unobserved_reward":1},{"RT":4780,"time": "2018-08-15 03:29:01pm", "schedule_type": "STATIC", "schedule_name": "random_7", "is_biased_choice":false,"side_choice": "LEFT", "trial_number":3,"observed_reward":0,"unobserved_reward":0},{"RT":2110,"time": "2018-08-15 03:29:03pm", "schedule_type": "STATIC", "schedule_name": "random_7", "is_biased_choice":true,"side_choice": "RIGHT", "trial_number":4,"observed_reward":1,"unobserved_reward":0},{"RT":2103,"time": "2018-08-15 03:29:05pm", "schedule_type": "STATIC", "schedule_name": "random_7", "is_biased_choice":false,"side_choice": "LEFT", "trial_number":5,"observed_reward":0,"unobserved_reward":0},{"RT":2071,"time": "2018-08-15 03:29:07pm", "schedule_type": "STATIC", "schedule_name": "random_7", "is_biased_choice":true,"side_choice": "RIGHT", "trial_number":6,"observed_reward":0,"unobserved_reward":0},{"RT":2025,"time": "2018-08-15 03:29:09pm", "schedule_type": "STATIC", "schedule_name": "random_7", "is_biased_choice":true,"side_choice": "RIGHT", "trial_number":7,"observed_reward":1,"unobserved_reward":0},{"RT":2428,"time": "2018-08-15 03:29:14pm", "schedule_type": "STATIC", "schedule_name": "random_7", "is_biased_choice":true,"side_choice": "RIGHT", "trial_number":8,"observed_reward":0,"unobserved_reward":1},{"RT":2335,"time": "2018-08-15 03:29:15pm", "schedule_type": "STATIC", "schedule_name": "random_7", "is_biased_choice":true,"side_choice": "RIGHT", "trial_number":9,"observed_reward":1,"unobserved_reward":0},{"RT":2380,"time": "2018-08-15 03:29:16pm", "schedule_type": "STATIC", "schedule_name": "random_7", "is_biased_choice":true,"side_choice": "RIGHT", "trial_number":10,"observed_reward":0,"unobserved_reward":0},{"RT":2134,"time": "2018-08-15 03:29:18pm", "schedule_type": "STATIC", "schedule_name": "random_7", "is_biased_choice":true,"side_choice": "RIGHT", "trial_number":11,"observed_reward":0,"unobserved_reward":0},{"RT":1994,"time": "2018-08-15 03:29:20pm", "schedule_type": "STATIC", "schedule_name": "random_7", "is_biased_choice":true,"side_choice": "RIGHT", "trial_number":12,"observed_reward":0,"unobserved_reward":0},{"RT":1940,"time": "2018-08-15 03:29:22pm", "schedule_type": "STATIC", "schedule_name": "random_7", "is_biased_choice":false,"side_choice": "LEFT", "trial_number":13,"observed_reward":0,"unobserved_reward":0},{"RT":2070,"time": "2018-08-15 03:29:25pm", "schedule_type": "STATIC", "schedule_name": "random_7", "is_biased_choice":true,"side_choice": "RIGHT", "trial_number":14,"observed_reward":0,"unobserved_reward":1},{"RT":2528,"time": "2018-08-15 03:29:27pm", "schedule_type": "STATIC", "schedule_name": "random_7", "is_biased_choice":true,"side_choice": "RIGHT", "trial_number":15,"observed_reward":1,"unobserved_reward":0},{"RT":2018,"time": "2018-08-15 03:29:29pm", "schedule_type": "STATIC", "schedule_name": "random_7", "is_biased_choice":true,"side_choice": "RIGHT", "trial_number":16,"observed_reward":1,"unobserved_reward":1},{"RT":2700,"time": "2018-08-15 03:29:32pm", "schedule_type": "STATIC", "schedule_name": "random_7", "is_biased_choice":true,"side_choice": "RIGHT", "trial_number":17,"observed_reward":0,"unobserved_reward":1},{"RT":2100,"time": "2018-08-15 03:29:34pm", "schedule_type": "STATIC", "schedule_name": "random_7", "is_biased_choice":true,"side_choice": "RIGHT", "trial_number":18,"observed_reward":0,"unobserved_reward":0},{"RT":9510,"time": "2018-08-15 03:29:43pm", "schedule_type": "STATIC", "schedule_name": "random_7", "is_biased_choice":true,"side_choice": "RIGHT", "trial_number":19,"observed_reward":0,"unobserved_reward":0},{"RT":2264,"time": "2018-08-15 03:29:46pm", "schedule_type": "STATIC", "schedule_name": "random_7", "is_biased_choice":true,"side_choice": "RIGHT", "trial_number":20,"observed_reward":1,"unobserved_reward":1},{"RT":2778,"time": "2018-08-15 03:29:48pm", "schedule_type": "STATIC", "schedule_name": "random_7", "is_biased_choice":true,"side_choice": "RIGHT", "trial_number":21,"observed_reward":1,"unobserved_reward":0},{"RT":2023,"time": "2018-08-15 03:29:50pm", "schedule_type": "STATIC", "schedule_name": "random_7", "is_biased_choice":true,"side_choice": "RIGHT", "trial_number":22,"observed_reward":0,"unobserved_reward":0},{"RT":2181,"time": "2018-08-15 03:29:53pm", "schedule_type": "STATIC", "schedule_name": "random_7", "is_biased_choice":true,"side_choice": "RIGHT", "trial_number":23,"observed_reward":1,"unobserved_reward":0},{"RT":2055,"time": "2018-08-15 03:29:55pm", "schedule_type": "STATIC", "schedule_name": "random_7", "is_biased_choice":true,"side_choice": "RIGHT", "trial_number":24,"observed_reward":0,"unobserved_reward":0},{"RT":2124,"time": "2018-08-15 03:29:57pm", "schedule_type": "STATIC", "schedule_name": "random_7", "is_biased_choice":true,"side_choice": "RIGHT", "trial_number":25,"observed_reward":1,"unobserved_reward":0},{"RT":2196,"time": "2018-08-15 03:29:59pm", "schedule_type": "STATIC", "schedule_name": "random_7", "is_biased_choice":true,"side_choice": "RIGHT", "trial_number":26,"observed_reward":0,"unobserved_reward":0},{"RT":1994,"time": "2018-08-15 03:30:01pm", "schedule_type": "STATIC", "schedule_name": "random_7", "is_biased_choice":true,"side_choice": "RIGHT", "trial_number":27,"observed_reward":0,"unobserved_reward":0},{"RT":2008,"time": "2018-08-15 03:30:03pm", "schedule_type": "STATIC", "schedule_name": "random_7", "is_biased_choice":true,"side_choice": "RIGHT", "trial_number":28,"observed_reward":1,"unobserved_reward":1},{"RT":2024,"time": "2018-08-15 03:30:05pm", "schedule_type": "STATIC", "schedule_name": "random_7", "is_biased_choice":true,"side_choice": "RIGHT", "trial_number":29,"observed_reward":0,"unobserved_reward":0},{"RT":2010,"time": "2018-08-15 03:30:07pm", "schedule_type": "STATIC", "schedule_name": "random_7", "is_biased_choice":true,"side_choice": "RIGHT", "trial_number":30,"observed_reward":1,"unobserved_reward":0},{"RT":2008,"time": "2018-08-15 03:30:09pm", "schedule_type": "STATIC", "schedule_name": "random_7", "is_biased_choice":true,"side_choice": "RIGHT", "trial_number":31,"observed_reward":0,"unobserved_reward":0},{"RT":2436,"time": "2018-08-15 03:30:11pm", "schedule_type": "STATIC", "schedule_name": "random_7", "is_biased_choice":true,"side_choice": "RIGHT", "trial_number":32,"observed_reward":1,"unobserved_reward":0},{"RT":2095,"time": "2018-08-15 03:30:14pm", "schedule_type": "STATIC", "schedule_name": "random_7", "is_biased_choice":true,"side_choice": "RIGHT", "trial_number":33,"observed_reward":0,"unobserved_reward":0},{"RT":2032,"time": "2018-08-15 03:30:16pm", "schedule_type": "STATIC", "schedule_name": "random_7", "is_biased_choice":true,"side_choice": "RIGHT", "trial_number":34,"observed_reward":0,"unobserved_reward":0},{"RT":1978,"time": "2018-08-15 03:30:18pm", "schedule_type": "STATIC", "schedule_name": "random_7", "is_biased_choice":true,"side_choice": "RIGHT", "trial_number":35,"observed_reward":0,"unobserved_reward":0},{"RT":2505,"time": "2018-08-15 03:30:20pm", "schedule_type": "STATIC", "schedule_name": "random_7", "is_biased_choice":true,"side_choice": "RIGHT", "trial_number":36,"observed_reward":0,"unobserved_reward":0},{"RT":2165,"time": "2018-08-15 03:30:22pm", "schedule_type": "STATIC", "schedule_name": "random_7", "is_biased_choice":true,"side_choice": "RIGHT", "trial_number":37,"observed_reward":1,"unobserved_reward":0},{"RT":2560,"time": "2018-08-15 03:30:25pm", "schedule_type": "STATIC", "schedule_name": "random_7", "is_biased_choice":true,"side_choice": "RIGHT", "trial_number":38,"observed_reward":1,"unobserved_reward":0},{"RT":2055,"time": "2018-08-15 03:30:27pm", "schedule_type": "STATIC", "schedule_name": "random_7", "is_biased_choice":true,"side_choice": "RIGHT", "trial_number":39,"observed_reward":1,"unobserved_reward":0},{"RT":2002,"time": "2018-08-15 03:30:29pm", "schedule_type": "STATIC", "schedule_name": "random_7", "is_biased_choice":true,"side_choice": "RIGHT", "trial_number":40,"observed_reward":0,"unobserved_reward":0},{"RT":2108,"time": "2018-08-15 03:30:31pm", "schedule_type": "STATIC", "schedule_name": "random_7", "is_biased_choice":true,"side_choice": "RIGHT", "trial_number":41,"observed_reward":0,"unobserved_reward":1},{"RT":2096,"time": "2018-08-15 03:30:33pm", "schedule_type": "STATIC", "schedule_name": "random_7", "is_biased_choice":true,"side_choice": "RIGHT", "trial_number":42,"observed_reward":0,"unobserved_reward":0},{"RT":2405,"time": "2018-08-15 03:30:35pm", "schedule_type": "STATIC", "schedule_name": "random_7", "is_biased_choice":true,"side_choice": "RIGHT", "trial_number":43,"observed_reward":0,"unobserved_reward":1},{"RT":2063,"time": "2018-08-15 03:30:38pm", "schedule_type": "STATIC", "schedule_name": "random_7", "is_biased_choice":true,"side_choice": "RIGHT", "trial_number":44,"observed_reward":0,"unobserved_reward":0},{"RT":2009,"time": "2018-08-15 03:30:40pm", "schedule_type": "STATIC", "schedule_name": "random_7", "is_biased_choice":true,"side_choice": "RIGHT", "trial_number":45,"observed_reward":0,"unobserved_reward":0},{"RT":2086,"time": "2018-08-15 03:30:42pm", "schedule_type": "STATIC", "schedule_name": "random_7", "is_biased_choice":true,"side_choice": "RIGHT", "trial_number":46,"observed_reward":0,"unobserved_reward":1},{"RT":2024,"time": "2018-08-15 03:30:44pm", "schedule_type": "STATIC", "schedule_name": "random_7", "is_biased_choice":true,"side_choice": "RIGHT", "trial_number":47,"observed_reward":0,"unobserved_reward":0},{"RT":2056,"time": "2018-08-15 03:30:46pm", "schedule_type": "STATIC", "schedule_name": "random_7", "is_biased_choice":true,"side_choice": "RIGHT", "trial_number":48,"observed_reward":0,"unobserved_reward":1},{"RT":2056,"time": "2018-08-15 03:30:48pm", "schedule_type": "STATIC", "schedule_name": "random_7", "is_biased_choice":true,"side_choice": "RIGHT", "trial_number":49,"observed_reward":0,"unobserved_reward":0},{"RT":2465,"time": "2018-08-15 03:30:50pm", "schedule_type": "STATIC", "schedule_name": "random_7", "is_biased_choice":true,"side_choice": "RIGHT", "trial_number":50,"observed_reward":0,"unobserved_reward":1},{"RT":2081,"time": "2018-08-15 03:30:52pm", "schedule_type": "STATIC", "schedule_name": "random_7", "is_biased_choice":true,"side_choice": "RIGHT", "trial_number":51,"observed_reward":0,"unobserved_reward":0},{"RT":1931,"time": "2018-08-15 03:30:54pm", "schedule_type": "STATIC", "schedule_name": "random_7", "is_biased_choice":true,"side_choice": "RIGHT", "trial_number":52,"observed_reward":1,"unobserved_reward":0},{"RT":2047,"time": "2018-08-15 03:30:56pm", "schedule_type": "STATIC", "schedule_name": "random_7", "is_biased_choice":true,"side_choice": "RIGHT", "trial_number":53,"observed_reward":0,"unobserved_reward":1},{"RT":2049,"time": "2018-08-15 03:30:58pm", "schedule_type": "STATIC", "schedule_name": "random_7", "is_biased_choice":true,"side_choice": "RIGHT", "trial_number":54,"observed_reward":0,"unobserved_reward":0},{"RT":2085,"time": "2018-08-15 03:31:00pm", "schedule_type": "STATIC", "schedule_name": "random_7", "is_biased_choice":true,"side_choice": "RIGHT", "trial_number":55,"observed_reward":0,"unobserved_reward":0},{"RT":2053,"time": "2018-08-15 03:31:02pm", "schedule_type": "STATIC", "schedule_name": "random_7", "is_biased_choice":true,"side_choice": "RIGHT", "trial_number":56,"observed_reward":0,"unobserved_reward":0},{"RT":2523,"time": "2018-08-15 03:31:05pm", "schedule_type": "STATIC", "schedule_name": "random_7", "is_biased_choice":true,"side_choice": "RIGHT", "trial_number":57,"observed_reward":1,"unobserved_reward":0},{"RT":2086,"time": "2018-08-15 03:31:07pm", "schedule_type": "STATIC", "schedule_name": "random_7", "is_biased_choice":true,"side_choice": "RIGHT", "trial_number":58,"observed_reward":0,"unobserved_reward":0},{"RT":2032,"time": "2018-08-15 03:31:09pm", "schedule_type": "STATIC", "schedule_name": "random_7", "is_biased_choice":true,"side_choice": "RIGHT", "trial_number":59,"observed_reward":0,"unobserved_reward":1},{"RT":2023,"time": "2018-08-15 03:31:11pm", "schedule_type": "STATIC", "schedule_name": "random_7", "is_biased_choice":true,"side_choice": "RIGHT", "trial_number":60,"observed_reward":1,"unobserved_reward":0},{"RT":2057,"time": "2018-08-15 03:31:13pm", "schedule_type": "STATIC", "schedule_name": "random_7", "is_biased_choice":true,"side_choice": "RIGHT", "trial_number":61,"observed_reward":0,"unobserved_reward":0},{"RT":1961,"time": "2018-08-15 03:31:15pm", "schedule_type": "STATIC", "schedule_name": "random_7", "is_biased_choice":true,"side_choice": "RIGHT", "trial_number":62,"observed_reward":0,"unobserved_reward":0},{"RT":2070,"time": "2018-08-15 03:31:17pm", "schedule_type": "STATIC", "schedule_name": "random_7", "is_biased_choice":true,"side_choice": "RIGHT", "trial_number":63,"observed_reward":0,"unobserved_reward":0},{"RT":2156,"time": "2018-08-15 03:31:19pm", "schedule_type": "STATIC", "schedule_name": "random_7", "is_biased_choice":true,"side_choice": "RIGHT", "trial_number":64,"observed_reward":0,"unobserved_reward":1},{"RT":1995,"time": "2018-08-15 03:31:21pm", "schedule_type": "STATIC", "schedule_name": "random_7", "is_biased_choice":true,"side_choice": "RIGHT", "trial_number":65,"observed_reward":0,"unobserved_reward":1},{"RT":2062,"time": "2018-08-15 03:31:23pm", "schedule_type": "STATIC", "schedule_name": "random_7", "is_biased_choice":true,"side_choice": "RIGHT", "trial_number":66,"observed_reward":0,"unobserved_reward":0},{"RT":2390,"time": "2018-08-15 03:31:26pm", "schedule_type": "STATIC", "schedule_name": "random_7", "is_biased_choice":true,"side_choice": "RIGHT", "trial_number":67,"observed_reward":0,"unobserved_reward":1},{"RT":2055,"time": "2018-08-15 03:31:28pm", "schedule_type": "STATIC", "schedule_name": "random_7", "is_biased_choice":true,"side_choice": "RIGHT", "trial_number":68,"observed_reward":1,"unobserved_reward":1},{"RT":2676,"time": "2018-08-15 03:31:31pm", "schedule_type": "STATIC", "schedule_name": "random_7", "is_biased_choice":true,"side_choice": "RIGHT", "trial_number":69,"observed_reward":0,"unobserved_reward":1},{"RT":2057,"time": "2018-08-15 03:31:33pm", "schedule_type": "STATIC", "schedule_name": "random_7", "is_biased_choice":true,"side_choice": "RIGHT", "trial_number":70,"observed_reward":0,"unobserved_reward":0},{"RT":2140,"time": "2018-08-15 03:31:35pm", "schedule_type": "STATIC", "schedule_name": "random_7", "is_biased_choice":true,"side_choice": "RIGHT", "trial_number":71,"observed_reward":0,"unobserved_reward":1},{"RT":2334,"time": "2018-08-15 03:31:37pm", "schedule_type": "STATIC", "schedule_name": "random_7", "is_biased_choice":true,"side_choice": "RIGHT", "trial_number":72,"observed_reward":0,"unobserved_reward":0},{"RT":2072,"time": "2018-08-15 03:31:39pm", "schedule_type": "STATIC", "schedule_name": "random_7", "is_biased_choice":true,"side_choice": "RIGHT", "trial_number":73,"observed_reward":0,"unobserved_reward":0},{"RT":2015,"time": "2018-08-15 03:31:41pm", "schedule_type": "STATIC", "schedule_name": "random_7", "is_biased_choice":true,"side_choice": "RIGHT", "trial_number":74,"observed_reward":0,"unobserved_reward":0},{"RT":2017,"time": "2018-08-15 03:31:43pm", "schedule_type": "STATIC", "schedule_name": "random_7", "is_biased_choice":true,"side_choice": "RIGHT", "trial_number":75,"observed_reward":0,"unobserved_reward":1},{"RT":2258,"time": "2018-08-15 03:31:45pm", "schedule_type": "STATIC", "schedule_name": "random_7", "is_biased_choice":true,"side_choice": "RIGHT", "trial_number":76,"observed_reward":0,"unobserved_reward":0},{"RT":1908,"time": "2018-08-15 03:31:47pm", "schedule_type": "STATIC", "schedule_name": "random_7", "is_biased_choice":true,"side_choice": "RIGHT", "trial_number":77,"observed_reward":0,"unobserved_reward":0},{"RT":2420,"time": "2018-08-15 03:31:50pm", "schedule_type": "STATIC", "schedule_name": "random_7", "is_biased_choice":true,"side_choice": "RIGHT", "trial_number":78,"observed_reward":0,"unobserved_reward":1},{"RT":2024,"time": "2018-08-15 03:31:52pm", "schedule_type": "STATIC", "schedule_name": "random_7", "is_biased_choice":true,"side_choice": "RIGHT", "trial_number":79,"observed_reward":0,"unobserved_reward":0},{"RT":1986,"time": "2018-08-15 03:31:54pm", "schedule_type": "STATIC", "schedule_name": "random_7", "is_biased_choice":true,"side_choice": "RIGHT", "trial_number":80,"observed_reward":0,"unobserved_reward":0},{"RT":2289,"time": "2018-08-15 03:31:56pm", "schedule_type": "STATIC", "schedule_name": "random_7", "is_biased_choice":false,"side_choice": "LEFT", "trial_number":81,"observed_reward":1,"unobserved_reward":0},{"RT":2077,"time": "2018-08-15 03:31:58pm", "schedule_type": "STATIC", "schedule_name": "random_7", "is_biased_choice":false,"side_choice": "LEFT", "trial_number":82,"observed_reward":0,"unobserved_reward":0},{"RT":2010,"time": "2018-08-15 03:32:00pm", "schedule_type": "STATIC", "schedule_name": "random_7", "is_biased_choice":true,"side_choice": "RIGHT", "trial_number":83,"observed_reward":0,"unobserved_reward":0},{"RT":1970,"time": "2018-08-15 03:32:02pm", "schedule_type": "STATIC", "schedule_name": "random_7", "is_biased_choice":true,"side_choice": "RIGHT", "trial_number":84,"observed_reward":1,"unobserved_reward":0},{"RT":1992,"time": "2018-08-15 03:32:04pm", "schedule_type": "STATIC", "schedule_name": "random_7", "is_biased_choice":true,"side_choice": "RIGHT", "trial_number":85,"observed_reward":0,"unobserved_reward":1},{"RT":2064,"time": "2018-08-15 03:32:06pm", "schedule_type": "STATIC", "schedule_name": "random_7", "is_biased_choice":false,"side_choice": "LEFT", "trial_number":86,"observed_reward":0,"unobserved_reward":0},{"RT":1970,"time": "2018-08-15 03:32:08pm", "schedule_type": "STATIC", "schedule_name": "random_7", "is_biased_choice":true,"side_choice": "RIGHT", "trial_number":87,"observed_reward":0,"unobserved_reward":0},{"RT":1976,"time": "2018-08-15 03:32:10pm", "schedule_type": "STATIC", "schedule_name": "random_7", "is_biased_choice":true,"side_choice": "RIGHT", "trial_number":88,"observed_reward":0,"unobserved_reward":0},{"RT":2220,"time": "2018-08-15 03:32:12pm", "schedule_type": "STATIC", "schedule_name": "random_7", "is_biased_choice":false,"side_choice": "LEFT", "trial_number":89,"observed_reward":1,"unobserved_reward":0},{"RT":2021,"time": "2018-08-15 03:32:14pm", "schedule_type": "STATIC", "schedule_name": "random_7", "is_biased_choice":false,"side_choice": "LEFT", "trial_number":90,"observed_reward":0,"unobserved_reward":0},{"RT":2064,"time": "2018-08-15 03:32:16pm", "schedule_type": "STATIC", "schedule_name": "random_7", "is_biased_choice":true,"side_choice": "RIGHT", "trial_number":91,"observed_reward":0,"unobserved_reward":0},{"RT":2017,"time": "2018-08-15 03:32:18pm", "schedule_type": "STATIC", "schedule_name": "random_7", "is_biased_choice":false,"side_choice": "LEFT", "trial_number":92,"observed_reward":1,"unobserved_reward":0},{"RT":2033,"time": "2018-08-15 03:32:20pm", "schedule_type": "STATIC", "schedule_name": "random_7", "is_biased_choice":true,"side_choice": "RIGHT", "trial_number":93,"observed_reward":1,"unobserved_reward":0},{"RT":2039,"time": "2018-08-15 03:32:23pm", "schedule_type": "STATIC", "schedule_name": "random_7", "is_biased_choice":false,"side_choice": "LEFT", "trial_number":94,"observed_reward":0,"unobserved_reward":0},{"RT":1985,"time": "2018-08-15 03:32:25pm", "schedule_type": "STATIC", "schedule_name": "random_7", "is_biased_choice":true,"side_choice": "RIGHT", "trial_number":95,"observed_reward":1,"unobserved_reward":0},{"RT":2025,"time": "2018-08-15 03:32:27pm", "schedule_type": "STATIC", "schedule_name": "random_7", "is_biased_choice":true,"side_choice": "RIGHT", "trial_number":96,"observed_reward":0,"unobserved_reward":0},{"RT":2606,"time": "2018-08-15 03:32:29pm", "schedule_type": "STATIC", "schedule_name": "random_7", "is_biased_choice":false,"side_choice": "LEFT", "trial_number":97,"observed_reward":0,"unobserved_reward":1},{"RT":2093,"time": "2018-08-15 03:32:31pm", "schedule_type": "STATIC", "schedule_name": "random_7", "is_biased_choice":false,"side_choice": "LEFT", "trial_number":98,"observed_reward":0,"unobserved_reward":0},{"RT":2135,"time": "2018-08-15 03:32:33pm", "schedule_type": "STATIC", "schedule_name": "random_7", "is_biased_choice":true,"side_choice": "RIGHT", "trial_number":99,"observed_reward":0,"unobserved_reward":0},