[{"RT":5351,"time": "2018-08-15 01:43:43pm", "schedule_type": "STATIC", "schedule_name": "random_7", "is_biased_choice":true,"side_choice": "RIGHT", "trial_number":0,"observed_reward":1,"unobserved_reward":0},{"RT":3846,"time": "2018-08-15 01:43:47pm", "schedule_type": "STATIC", "schedule_name": "random_7", "is_biased_choice":true,"side_choice": "RIGHT", "trial_number":1,"observed_reward":0,"unobserved_reward":0},{"RT":4233,"time": "2018-08-15 01:43:51pm", "schedule_type": "STATIC", "schedule_name": "random_7", "is_biased_choice":false,"side_choice": "LEFT", "trial_number":2,"observed_reward":0,"unobserved_reward":1},{"RT":4572,"time": "2018-08-15 01:43:56pm", "schedule_type": "STATIC", "schedule_name": "random_7", "is_biased_choice":true,"side_choice": "RIGHT", "trial_number":3,"observed_reward":0,"unobserved_reward":0},{"RT":3561,"time": "2018-08-15 01:43:59pm", "schedule_type": "STATIC", "schedule_name": "random_7", "is_biased_choice":false,"side_choice": "LEFT", "trial_number":4,"observed_reward":0,"unobserved_reward":1},{"RT":3632,"time": "2018-08-15 01:44:03pm", "schedule_type": "STATIC", "schedule_name": "random_7", "is_biased_choice":true,"side_choice": "RIGHT", "trial_number":5,"observed_reward":0,"unobserved_reward":0},{"RT":3152,"time": "2018-08-15 01:44:06pm", "schedule_type": "STATIC", "schedule_name": "random_7", "is_biased_choice":true,"side_choice": "RIGHT", "trial_number":6,"observed_reward":0,"unobserved_reward":0},{"RT":3424,"time": "2018-08-15 01:44:10pm", "schedule_type": "STATIC", "schedule_name": "random_7", "is_biased_choice":false,"side_choice": "LEFT", "trial_number":7,"observed_reward":0,"unobserved_reward":1},{"RT":5015,"time": "2018-08-15 01:44:15pm", "schedule_type": "STATIC", "schedule_name": "random_7", "is_biased_choice":false,"side_choice": "LEFT", "trial_number":8,"observed_reward":1,"unobserved_reward":0},{"RT":3496,"time": "2018-08-15 01:44:18pm", "schedule_type": "STATIC", "schedule_name": "random_7", "is_biased_choice":false,"side_choice": "LEFT", "trial_number":9,"observed_reward":0,"unobserved_reward":1},{"RT":3505,"time": "2018-08-15 01:44:23pm", "schedule_type": "STATIC", "schedule_name": "random_7", "is_biased_choice":false,"side_choice": "LEFT", "trial_number":10,"observed_reward":0,"unobserved_reward":0},{"RT":8303,"time": "2018-08-15 01:44:30pm", "schedule_type": "STATIC", "schedule_name": "random_7", "is_biased_choice":true,"side_choice": "RIGHT", "trial_number":11,"observed_reward":0,"unobserved_reward":0},{"RT":4513,"time": "2018-08-15 01:44:35pm", "schedule_type": "STATIC", "schedule_name": "random_7", "is_biased_choice":true,"side_choice": "RIGHT", "trial_number":12,"observed_reward":0,"unobserved_reward":0},{"RT":2712,"time": "2018-08-15 01:44:37pm", "schedule_type": "STATIC", "schedule_name": "random_7", "is_biased_choice":false,"side_choice": "LEFT", "trial_number":13,"observed_reward":0,"unobserved_reward":0},{"RT":3224,"time": "2018-08-15 01:44:40pm", "schedule_type": "STATIC", "schedule_name": "random_7", "is_biased_choice":false,"side_choice": "LEFT", "trial_number":14,"observed_reward":1,"unobserved_reward":0},{"RT":3198,"time": "2018-08-15 01:44:44pm", "schedule_type": "STATIC", "schedule_name": "random_7", "is_biased_choice":true,"side_choice": "RIGHT", "trial_number":15,"observed_reward":1,"unobserved_reward":0},{"RT":3350,"time": "2018-08-15 01:44:47pm", "schedule_type": "STATIC", "schedule_name": "random_7", "is_biased_choice":true,"side_choice": "RIGHT", "trial_number":16,"observed_reward":1,"unobserved_reward":1},{"RT":3104,"time": "2018-08-15 01:44:50pm", "schedule_type": "STATIC", "schedule_name": "random_7", "is_biased_choice":true,"side_choice": "RIGHT", "trial_number":17,"observed_reward":0,"unobserved_reward":1},{"RT":2769,"time": "2018-08-15 01:44:53pm", "schedule_type": "STATIC", "schedule_name": "random_7", "is_biased_choice":true,"side_choice": "RIGHT", "trial_number":18,"observed_reward":0,"unobserved_reward":0},{"RT":3991,"time": "2018-08-15 01:44:57pm", "schedule_type": "STATIC", "schedule_name": "random_7", "is_biased_choice":true,"side_choice": "RIGHT", "trial_number":19,"observed_reward":0,"unobserved_reward":0},{"RT":2782,"time": "2018-08-15 01:45:00pm", "schedule_type": "STATIC", "schedule_name": "random_7", "is_biased_choice":false,"side_choice": "LEFT", "trial_number":20,"observed_reward":1,"unobserved_reward":1},{"RT":3271,"time": "2018-08-15 01:45:03pm", "schedule_type": "STATIC", "schedule_name": "random_7", "is_biased_choice":false,"side_choice": "LEFT", "trial_number":21,"observed_reward":0,"unobserved_reward":1},{"RT":2832,"time": "2018-08-15 01:45:06pm", "schedule_type": "STATIC", "schedule_name": "random_7", "is_biased_choice":true,"side_choice": "RIGHT", "trial_number":22,"observed_reward":0,"unobserved_reward":0},{"RT":2552,"time": "2018-08-15 01:45:08pm", "schedule_type": "STATIC", "schedule_name": "random_7", "is_biased_choice":true,"side_choice": "RIGHT", "trial_number":23,"observed_reward":1,"unobserved_reward":0},{"RT":3375,"time": "2018-08-15 01:45:12pm", "schedule_type": "STATIC", "schedule_name": "random_7", "is_biased_choice":true,"side_choice": "RIGHT", "trial_number":24,"observed_reward":0,"unobserved_reward":0},{"RT":3136,"time": "2018-08-15 01:45:15pm", "schedule_type": "STATIC", "schedule_name": "random_7", "is_biased_choice":false,"side_choice": "LEFT", "trial_number":25,"observed_reward":0,"unobserved_reward":1},{"RT":2955,"time": "2018-08-15 01:45:18pm", "schedule_type": "STATIC", "schedule_name": "random_7", "is_biased_choice":false,"side_choice": "LEFT", "trial_number":26,"observed_reward":0,"unobserved_reward":0},{"RT":2657,"time": "2018-08-15 01:45:20pm", "schedule_type": "STATIC", "schedule_name": "random_7", "is_biased_choice":true,"side_choice": "RIGHT", "trial_number":27,"observed_reward":0,"unobserved_reward":0},{"RT":2939,"time": "2018-08-15 01:45:25pm", "schedule_type": "STATIC", "schedule_name": "random_7", "is_biased_choice":true,"side_choice": "RIGHT", "trial_number":28,"observed_reward":1,"unobserved_reward":1},{"RT":4089,"time": "2018-08-15 01:45:27pm", "schedule_type": "STATIC", "schedule_name": "random_7", "is_biased_choice":true,"side_choice": "RIGHT", "trial_number":29,"observed_reward":0,"unobserved_reward":0},{"RT":2988,"time": "2018-08-15 01:45:30pm", "schedule_type": "STATIC", "schedule_name": "random_7", "is_biased_choice":true,"side_choice": "RIGHT", "trial_number":30,"observed_reward":1,"unobserved_reward":0},{"RT":3035,"time": "2018-08-15 01:45:33pm", "schedule_type": "STATIC", "schedule_name": "random_7", "is_biased_choice":false,"side_choice": "LEFT", "trial_number":31,"observed_reward":0,"unobserved_reward":0},{"RT":7226,"time": "2018-08-15 01:45:41pm", "schedule_type": "STATIC", "schedule_name": "random_7", "is_biased_choice":true,"side_choice": "RIGHT", "trial_number":32,"observed_reward":1,"unobserved_reward":0},{"RT":2639,"time": "2018-08-15 01:45:43pm", "schedule_type": "STATIC", "schedule_name": "random_7", "is_biased_choice":true,"side_choice": "RIGHT", "trial_number":33,"observed_reward":0,"unobserved_reward":0},{"RT":2523,"time": "2018-08-15 01:45:46pm", "schedule_type": "STATIC", "schedule_name": "random_7", "is_biased_choice":true,"side_choice": "RIGHT", "trial_number":34,"observed_reward":0,"unobserved_reward":0},{"RT":3533,"time": "2018-08-15 01:45:49pm", "schedule_type": "STATIC", "schedule_name": "random_7", "is_biased_choice":true,"side_choice": "RIGHT", "trial_number":35,"observed_reward":0,"unobserved_reward":0},{"RT":2913,"time": "2018-08-15 01:45:52pm", "schedule_type": "STATIC", "schedule_name": "random_7", "is_biased_choice":true,"side_choice": "RIGHT", "trial_number":36,"observed_reward":0,"unobserved_reward":0},{"RT":3064,"time": "2018-08-15 01:45:55pm", "schedule_type": "STATIC", "schedule_name": "random_7", "is_biased_choice":false,"side_choice": "LEFT", "trial_number":37,"observed_reward":0,"unobserved_reward":1},{"RT":2641,"time": "2018-08-15 01:45:58pm", "schedule_type": "STATIC", "schedule_name": "random_7", "is_biased_choice":false,"side_choice": "LEFT", "trial_number":38,"observed_reward":0,"unobserved_reward":1},{"RT":2793,"time": "2018-08-15 01:46:01pm", "schedule_type": "STATIC", "schedule_name": "random_7", "is_biased_choice":true,"side_choice": "RIGHT", "trial_number":39,"observed_reward":1,"unobserved_reward":0},{"RT":2780,"time": "2018-08-15 01:46:04pm", "schedule_type": "STATIC", "schedule_name": "random_7", "is_biased_choice":true,"side_choice": "RIGHT", "trial_number":40,"observed_reward":0,"unobserved_reward":0},{"RT":2875,"time": "2018-08-15 01:46:06pm", "schedule_type": "STATIC", "schedule_name": "random_7", "is_biased_choice":true,"side_choice": "RIGHT", "trial_number":41,"observed_reward":0,"unobserved_reward":1},{"RT":2715,"time": "2018-08-15 01:46:09pm", "schedule_type": "STATIC", "schedule_name": "random_7", "is_biased_choice":false,"side_choice": "LEFT", "trial_number":42,"observed_reward":0,"unobserved_reward":0},{"RT":2580,"time": "2018-08-15 01:46:12pm", "schedule_type": "STATIC", "schedule_name": "random_7", "is_biased_choice":true,"side_choice": "RIGHT", "trial_number":43,"observed_reward":0,"unobserved_reward":1},{"RT":2953,"time": "2018-08-15 01:46:15pm", "schedule_type": "STATIC", "schedule_name": "random_7", "is_biased_choice":true,"side_choice": "RIGHT", "trial_number":44,"observed_reward":0,"unobserved_reward":0},{"RT":2591,"time": "2018-08-15 01:46:17pm", "schedule_type": "STATIC", "schedule_name": "random_7", "is_biased_choice":true,"side_choice": "RIGHT", "trial_number":45,"observed_reward":0,"unobserved_reward":0},{"RT":2680,"time": "2018-08-15 01:46:20pm", "schedule_type": "STATIC", "schedule_name": "random_7", "is_biased_choice":false,"side_choice": "LEFT", "trial_number":46,"observed_reward":1,"unobserved_reward":0},{"RT":3000,"time": "2018-08-15 01:46:23pm", "schedule_type": "STATIC", "schedule_name": "random_7", "is_biased_choice":false,"side_choice": "LEFT", "trial_number":47,"observed_reward":0,"unobserved_reward":0},{"RT":2736,"time": "2018-08-15 01:46:27pm", "schedule_type": "STATIC", "schedule_name": "random_7", "is_biased_choice":true,"side_choice": "RIGHT", "trial_number":48,"observed_reward":0,"unobserved_reward":1},{"RT":3609,"time": "2018-08-15 01:46:29pm", "schedule_type": "STATIC", "schedule_name": "random_7", "is_biased_choice":true,"side_choice": "RIGHT", "trial_number":49,"observed_reward":0,"unobserved_reward":0},{"RT":3263,"time": "2018-08-15 01:46:33pm", "schedule_type": "STATIC", "schedule_name": "random_7", "is_biased_choice":true,"side_choice": "RIGHT", "trial_number":50,"observed_reward":0,"unobserved_reward":1},{"RT":2624,"time": "2018-08-15 01:46:35pm", "schedule_type": "STATIC", "schedule_name": "random_7", "is_biased_choice":false,"side_choice": "LEFT", "trial_number":51,"observed_reward":0,"unobserved_reward":0},{"RT":2401,"time": "2018-08-15 01:46:38pm", "schedule_type": "STATIC", "schedule_name": "random_7", "is_biased_choice":true,"side_choice": "RIGHT", "trial_number":52,"observed_reward":1,"unobserved_reward":0},{"RT":2535,"time": "2018-08-15 01:46:40pm", "schedule_type": "STATIC", "schedule_name": "random_7", "is_biased_choice":true,"side_choice": "RIGHT", "trial_number":53,"observed_reward":0,"unobserved_reward":1},{"RT":2632,"time": "2018-08-15 01:46:43pm", "schedule_type": "STATIC", "schedule_name": "random_7", "is_biased_choice":false,"side_choice": "LEFT", "trial_number":54,"observed_reward":0,"unobserved_reward":0},{"RT":2465,"time": "2018-08-15 01:46:45pm", "schedule_type": "STATIC", "schedule_name": "random_7", "is_biased_choice":true,"side_choice": "RIGHT", "trial_number":55,"observed_reward":0,"unobserved_reward":0},{"RT":2559,"time": "2018-08-15 01:46:48pm", "schedule_type": "STATIC", "schedule_name": "random_7", "is_biased_choice":true,"side_choice": "RIGHT", "trial_number":56,"observed_reward":0,"unobserved_reward":0},{"RT":2672,"time": "2018-08-15 01:46:50pm", "schedule_type": "STATIC", "schedule_name": "random_7", "is_biased_choice":false,"side_choice": "LEFT", "trial_number":57,"observed_reward":0,"unobserved_reward":1},{"RT":2793,"time": "2018-08-15 01:46:53pm", "schedule_type": "STATIC", "schedule_name": "random_7", "is_biased_choice":false,"side_choice": "LEFT", "trial_number":58,"observed_reward":0,"unobserved_reward":0},{"RT":2647,"time": "2018-08-15 01:46:56pm", "schedule_type": "STATIC", "schedule_name": "random_7", "is_biased_choice":true,"side_choice": "RIGHT", "trial_number":59,"observed_reward":0,"unobserved_reward":1},{"RT":2800,"time": "2018-08-15 01:46:59pm", "schedule_type": "STATIC", "schedule_name": "random_7", "is_biased_choice":true,"side_choice": "RIGHT", "trial_number":60,"observed_reward":1,"unobserved_reward":0},{"RT":3467,"time": "2018-08-15 01:47:02pm", "schedule_type": "STATIC", "schedule_name": "random_7", "is_biased_choice":true,"side_choice": "RIGHT", "trial_number":61,"observed_reward":0,"unobserved_reward":0},{"RT":3029,"time": "2018-08-15 01:47:05pm", "schedule_type": "STATIC", "schedule_name": "random_7", "is_biased_choice":false,"side_choice": "LEFT", "trial_number":62,"observed_reward":0,"unobserved_reward":0},{"RT":2504,"time": "2018-08-15 01:47:08pm", "schedule_type": "STATIC", "schedule_name": "random_7", "is_biased_choice":false,"side_choice": "LEFT", "trial_number":63,"observed_reward":0,"unobserved_reward":0},{"RT":2481,"time": "2018-08-15 01:47:10pm", "schedule_type": "STATIC", "schedule_name": "random_7", "is_biased_choice":true,"side_choice": "RIGHT", "trial_number":64,"observed_reward":0,"unobserved_reward":1},{"RT":2455,"time": "2018-08-15 01:47:13pm", "schedule_type": "STATIC", "schedule_name": "random_7", "is_biased_choice":false,"side_choice": "LEFT", "trial_number":65,"observed_reward":1,"unobserved_reward":0},{"RT":3145,"time": "2018-08-15 01:47:16pm", "schedule_type": "STATIC", "schedule_name": "random_7", "is_biased_choice":true,"side_choice": "RIGHT", "trial_number":66,"observed_reward":0,"unobserved_reward":0},{"RT":2907,"time": "2018-08-15 01:47:19pm", "schedule_type": "STATIC", "schedule_name": "random_7", "is_biased_choice":false,"side_choice": "LEFT", "trial_number":67,"observed_reward":1,"unobserved_reward":0},{"RT":2485,"time": "2018-08-15 01:47:21pm", "schedule_type": "STATIC", "schedule_name": "random_7", "is_biased_choice":true,"side_choice": "RIGHT", "trial_number":68,"observed_reward":1,"unobserved_reward":1},{"RT":3346,"time": "2018-08-15 01:47:25pm", "schedule_type": "STATIC", "schedule_name": "random_7", "is_biased_choice":false,"side_choice": "LEFT", "trial_number":69,"observed_reward":1,"unobserved_reward":0},{"RT":2966,"time": "2018-08-15 01:47:29pm", "schedule_type": "STATIC", "schedule_name": "random_7", "is_biased_choice":true,"side_choice": "RIGHT", "trial_number":70,"observed_reward":0,"unobserved_reward":0},{"RT":3023,"time": "2018-08-15 01:47:31pm", "schedule_type": "STATIC", "schedule_name": "random_7", "is_biased_choice":false,"side_choice": "LEFT", "trial_number":71,"observed_reward":1,"unobserved_reward":0},{"RT":2640,"time": "2018-08-15 01:47:33pm", "schedule_type": "STATIC", "schedule_name": "random_7", "is_biased_choice":true,"side_choice": "RIGHT", "trial_number":72,"observed_reward":0,"unobserved_reward":0},{"RT":2432,"time": "2018-08-15 01:47:36pm", "schedule_type": "STATIC", "schedule_name": "random_7", "is_biased_choice":false,"side_choice": "LEFT", "trial_number":73,"observed_reward":0,"unobserved_reward":0},{"RT":3041,"time": "2018-08-15 01:47:39pm", "schedule_type": "STATIC", "schedule_name": "random_7", "is_biased_choice":false,"side_choice": "LEFT", "trial_number":74,"observed_reward":0,"unobserved_reward":0},{"RT":3202,"time": "2018-08-15 01:47:42pm", "schedule_type": "STATIC", "schedule_name": "random_7", "is_biased_choice":true,"side_choice": "RIGHT", "trial_number":75,"observed_reward":0,"unobserved_reward":1},{"RT":2654,"time": "2018-08-15 01:47:44pm", "schedule_type": "STATIC", "schedule_name": "random_7", "is_biased_choice":true,"side_choice": "RIGHT", "trial_number":76,"observed_reward":0,"unobserved_reward":0},{"RT":3056,"time": "2018-08-15 01:47:48pm", "schedule_type": "STATIC", "schedule_name": "random_7", "is_biased_choice":false,"side_choice": "LEFT", "trial_number":77,"observed_reward":0,"unobserved_reward":0},{"RT":3006,"time": "2018-08-15 01:47:50pm", "schedule_type": "STATIC", "schedule_name": "random_7", "is_biased_choice":true,"side_choice": "RIGHT", "trial_number":78,"observed_reward":0,"unobserved_reward":1},{"RT":2816,"time": "2018-08-15 01:47:53pm", "schedule_type": "STATIC", "schedule_name": "random_7", "is_biased_choice":true,"side_choice": "RIGHT", "trial_number":79,"observed_reward":0,"unobserved_reward":0},{"RT":3164,"time": "2018-08-15 01:47:57pm", "schedule_type": "STATIC", "schedule_name": "random_7", "is_biased_choice":false,"side_choice": "LEFT", "trial_number":80,"observed_reward":0,"unobserved_reward":0},{"RT":2526,"time": "2018-08-15 01:47:59pm", "schedule_type": "STATIC", "schedule_name": "random_7", "is_biased_choice":false,"side_choice": "LEFT", "trial_number":81,"observed_reward":1,"unobserved_reward":0},{"RT":2753,"time": "2018-08-15 01:48:02pm", "schedule_type": "STATIC", "schedule_name": "random_7", "is_biased_choice":false,"side_choice": "LEFT", "trial_number":82,"observed_reward":0,"unobserved_reward":0},{"RT":2431,"time": "2018-08-15 01:48:04pm", "schedule_type": "STATIC", "schedule_name": "random_7", "is_biased_choice":true,"side_choice": "RIGHT", "trial_number":83,"observed_reward":0,"unobserved_reward":0},{"RT":2832,"time": "2018-08-15 01:48:07pm", "schedule_type": "STATIC", "schedule_name": "random_7", "is_biased_choice":false,"side_choice": "LEFT", "trial_number":84,"observed_reward":0,"unobserved_reward":1},{"RT":2480,"time": "2018-08-15 01:48:10pm", "schedule_type": "STATIC", "schedule_name": "random_7", "is_biased_choice":false,"side_choice": "LEFT", "trial_number":85,"observed_reward":1,"unobserved_reward":0},{"RT":2769,"time": "2018-08-15 01:48:12pm", "schedule_type": "STATIC", "schedule_name": "random_7", "is_biased_choice":true,"side_choice": "RIGHT", "trial_number":86,"observed_reward":0,"unobserved_reward":0},{"RT":2384,"time": "2018-08-15 01:48:15pm", "schedule_type": "STATIC", "schedule_name": "random_7", "is_biased_choice":false,"side_choice": "LEFT", "trial_number":87,"observed_reward":0,"unobserved_reward":0},{"RT":2647,"time": "2018-08-15 01:48:17pm", "schedule_type": "STATIC", "schedule_name": "random_7", "is_biased_choice":false,"side_choice": "LEFT", "trial_number":88,"observed_reward":0,"unobserved_reward":0},{"RT":2577,"time": "2018-08-15 01:48:20pm", "schedule_type": "STATIC", "schedule_name": "random_7", "is_biased_choice":true,"side_choice": "RIGHT", "trial_number":89,"observed_reward":0,"unobserved_reward":1},{"RT":2407,"time": "2018-08-15 01:48:22pm", "schedule_type": "STATIC", "schedule_name": "random_7", "is_biased_choice":false,"side_choice": "LEFT", "trial_number":90,"observed_reward":0,"unobserved_reward":0},{"RT":2736,"time": "2018-08-15 01:48:25pm", "schedule_type": "STATIC", "schedule_name": "random_7", "is_biased_choice":true,"side_choice": "RIGHT", "trial_number":91,"observed_reward":0,"unobserved_reward":0},{"RT":2576,"time": "2018-08-15 01:48:29pm", "schedule_type": "STATIC", "schedule_name": "random_7", "is_biased_choice":true,"side_choice": "RIGHT", "trial_number":92,"observed_reward":0,"unobserved_reward":1},{"RT":2656,"time": "2018-08-15 01:48:30pm", "schedule_type": "STATIC", "schedule_name": "random_7", "is_biased_choice":false,"side_choice": "LEFT", "trial_number":93,"observed_reward":0,"unobserved_reward":1},{"RT":2859,"time": "2018-08-15 01:48:33pm", "schedule_type": "STATIC", "schedule_name": "random_7", "is_biased_choice":false,"side_choice": "LEFT", "trial_number":94,"observed_reward":0,"unobserved_reward":0},{"RT":2398,"time": "2018-08-15 01:48:36pm", "schedule_type": "STATIC", "schedule_name": "random_7", "is_biased_choice":true,"side_choice": "RIGHT", "trial_number":95,"observed_reward":1,"unobserved_reward":0},{"RT":3181,"time": "2018-08-15 01:48:39pm", "schedule_type": "STATIC", "schedule_name": "random_7", "is_biased_choice":true,"side_choice": "RIGHT", "trial_number":96,"observed_reward":0,"unobserved_reward":0},{"RT":2536,"time": "2018-08-15 01:48:41pm", "schedule_type": "STATIC", "schedule_name": "random_7", "is_biased_choice":false,"side_choice": "LEFT", "trial_number":97,"observed_reward":0,"unobserved_reward":1},{"RT":2818,"time": "2018-08-15 01:48:44pm", "schedule_type": "STATIC", "schedule_name": "random_7", "is_biased_choice":true,"side_choice": "RIGHT", "trial_number":98,"observed_reward":0,"unobserved_reward":0},{"RT":2600,"time": "2018-08-15 01:48:47pm", "schedule_type": "STATIC", "schedule_name": "random_7", "is_biased_choice":true,"side_choice": "RIGHT", "trial_number":99,"observed_reward":0,"unobserved_reward":0},