[{"RT":7870,"time": "2018-08-15 06:12:33pm", "schedule_type": "STATIC", "schedule_name": "random_7", "is_biased_choice":true,"side_choice": "LEFT", "trial_number":0,"observed_reward":1,"unobserved_reward":0},{"RT":6216,"time": "2018-08-15 06:12:39pm", "schedule_type": "STATIC", "schedule_name": "random_7", "is_biased_choice":false,"side_choice": "RIGHT", "trial_number":1,"observed_reward":0,"unobserved_reward":0},{"RT":2951,"time": "2018-08-15 06:12:42pm", "schedule_type": "STATIC", "schedule_name": "random_7", "is_biased_choice":true,"side_choice": "LEFT", "trial_number":2,"observed_reward":1,"unobserved_reward":0},{"RT":2609,"time": "2018-08-15 06:12:44pm", "schedule_type": "STATIC", "schedule_name": "random_7", "is_biased_choice":true,"side_choice": "LEFT", "trial_number":3,"observed_reward":0,"unobserved_reward":0},{"RT":2752,"time": "2018-08-15 06:12:47pm", "schedule_type": "STATIC", "schedule_name": "random_7", "is_biased_choice":false,"side_choice": "RIGHT", "trial_number":4,"observed_reward":0,"unobserved_reward":1},{"RT":2577,"time": "2018-08-15 06:12:50pm", "schedule_type": "STATIC", "schedule_name": "random_7", "is_biased_choice":true,"side_choice": "LEFT", "trial_number":5,"observed_reward":0,"unobserved_reward":0},{"RT":2471,"time": "2018-08-15 06:12:52pm", "schedule_type": "STATIC", "schedule_name": "random_7", "is_biased_choice":true,"side_choice": "LEFT", "trial_number":6,"observed_reward":0,"unobserved_reward":0},{"RT":2384,"time": "2018-08-15 06:12:54pm", "schedule_type": "STATIC", "schedule_name": "random_7", "is_biased_choice":true,"side_choice": "LEFT", "trial_number":7,"observed_reward":1,"unobserved_reward":0},{"RT":2640,"time": "2018-08-15 06:12:57pm", "schedule_type": "STATIC", "schedule_name": "random_7", "is_biased_choice":true,"side_choice": "LEFT", "trial_number":8,"observed_reward":0,"unobserved_reward":1},{"RT":2376,"time": "2018-08-15 06:13:00pm", "schedule_type": "STATIC", "schedule_name": "random_7", "is_biased_choice":true,"side_choice": "LEFT", "trial_number":9,"observed_reward":1,"unobserved_reward":0},{"RT":3073,"time": "2018-08-15 06:13:03pm", "schedule_type": "STATIC", "schedule_name": "random_7", "is_biased_choice":false,"side_choice": "RIGHT", "trial_number":10,"observed_reward":0,"unobserved_reward":0},{"RT":3047,"time": "2018-08-15 06:13:06pm", "schedule_type": "STATIC", "schedule_name": "random_7", "is_biased_choice":false,"side_choice": "RIGHT", "trial_number":11,"observed_reward":0,"unobserved_reward":0},{"RT":2441,"time": "2018-08-15 06:13:08pm", "schedule_type": "STATIC", "schedule_name": "random_7", "is_biased_choice":false,"side_choice": "RIGHT", "trial_number":12,"observed_reward":0,"unobserved_reward":0},{"RT":2328,"time": "2018-08-15 06:13:10pm", "schedule_type": "STATIC", "schedule_name": "random_7", "is_biased_choice":false,"side_choice": "RIGHT", "trial_number":13,"observed_reward":0,"unobserved_reward":0},{"RT":2479,"time": "2018-08-15 06:13:13pm", "schedule_type": "STATIC", "schedule_name": "random_7", "is_biased_choice":true,"side_choice": "LEFT", "trial_number":14,"observed_reward":0,"unobserved_reward":1},{"RT":2360,"time": "2018-08-15 06:13:15pm", "schedule_type": "STATIC", "schedule_name": "random_7", "is_biased_choice":false,"side_choice": "RIGHT", "trial_number":15,"observed_reward":0,"unobserved_reward":1},{"RT":2329,"time": "2018-08-15 06:13:18pm", "schedule_type": "STATIC", "schedule_name": "random_7", "is_biased_choice":true,"side_choice": "LEFT", "trial_number":16,"observed_reward":1,"unobserved_reward":1},{"RT":2599,"time": "2018-08-15 06:13:20pm", "schedule_type": "STATIC", "schedule_name": "random_7", "is_biased_choice":true,"side_choice": "LEFT", "trial_number":17,"observed_reward":0,"unobserved_reward":1},{"RT":2249,"time": "2018-08-15 06:13:22pm", "schedule_type": "STATIC", "schedule_name": "random_7", "is_biased_choice":true,"side_choice": "LEFT", "trial_number":18,"observed_reward":0,"unobserved_reward":0},{"RT":2720,"time": "2018-08-15 06:13:25pm", "schedule_type": "STATIC", "schedule_name": "random_7", "is_biased_choice":true,"side_choice": "LEFT", "trial_number":19,"observed_reward":0,"unobserved_reward":0},{"RT":2648,"time": "2018-08-15 06:13:28pm", "schedule_type": "STATIC", "schedule_name": "random_7", "is_biased_choice":true,"side_choice": "LEFT", "trial_number":20,"observed_reward":1,"unobserved_reward":1},{"RT":2615,"time": "2018-08-15 06:13:30pm", "schedule_type": "STATIC", "schedule_name": "random_7", "is_biased_choice":true,"side_choice": "LEFT", "trial_number":21,"observed_reward":1,"unobserved_reward":0},{"RT":2544,"time": "2018-08-15 06:13:33pm", "schedule_type": "STATIC", "schedule_name": "random_7", "is_biased_choice":true,"side_choice": "LEFT", "trial_number":22,"observed_reward":0,"unobserved_reward":0},{"RT":4328,"time": "2018-08-15 06:13:38pm", "schedule_type": "STATIC", "schedule_name": "random_7", "is_biased_choice":true,"side_choice": "LEFT", "trial_number":23,"observed_reward":1,"unobserved_reward":0},{"RT":2473,"time": "2018-08-15 06:13:40pm", "schedule_type": "STATIC", "schedule_name": "random_7", "is_biased_choice":true,"side_choice": "LEFT", "trial_number":24,"observed_reward":0,"unobserved_reward":0},{"RT":2408,"time": "2018-08-15 06:13:42pm", "schedule_type": "STATIC", "schedule_name": "random_7", "is_biased_choice":true,"side_choice": "LEFT", "trial_number":25,"observed_reward":1,"unobserved_reward":0},{"RT":2568,"time": "2018-08-15 06:13:45pm", "schedule_type": "STATIC", "schedule_name": "random_7", "is_biased_choice":true,"side_choice": "LEFT", "trial_number":26,"observed_reward":0,"unobserved_reward":0},{"RT":2776,"time": "2018-08-15 06:13:47pm", "schedule_type": "STATIC", "schedule_name": "random_7", "is_biased_choice":true,"side_choice": "LEFT", "trial_number":27,"observed_reward":0,"unobserved_reward":0},{"RT":3936,"time": "2018-08-15 06:13:52pm", "schedule_type": "STATIC", "schedule_name": "random_7", "is_biased_choice":true,"side_choice": "LEFT", "trial_number":28,"observed_reward":1,"unobserved_reward":1},{"RT":5304,"time": "2018-08-15 06:13:57pm", "schedule_type": "STATIC", "schedule_name": "random_7", "is_biased_choice":true,"side_choice": "LEFT", "trial_number":29,"observed_reward":0,"unobserved_reward":0},{"RT":4487,"time": "2018-08-15 06:14:02pm", "schedule_type": "STATIC", "schedule_name": "random_7", "is_biased_choice":true,"side_choice": "LEFT", "trial_number":30,"observed_reward":1,"unobserved_reward":0},{"RT":2609,"time": "2018-08-15 06:14:04pm", "schedule_type": "STATIC", "schedule_name": "random_7", "is_biased_choice":true,"side_choice": "LEFT", "trial_number":31,"observed_reward":0,"unobserved_reward":0},{"RT":2543,"time": "2018-08-15 06:14:06pm", "schedule_type": "STATIC", "schedule_name": "random_7", "is_biased_choice":true,"side_choice": "LEFT", "trial_number":32,"observed_reward":1,"unobserved_reward":0},{"RT":3305,"time": "2018-08-15 06:14:10pm", "schedule_type": "STATIC", "schedule_name": "random_7", "is_biased_choice":true,"side_choice": "LEFT", "trial_number":33,"observed_reward":0,"unobserved_reward":0},{"RT":2607,"time": "2018-08-15 06:14:12pm", "schedule_type": "STATIC", "schedule_name": "random_7", "is_biased_choice":false,"side_choice": "RIGHT", "trial_number":34,"observed_reward":0,"unobserved_reward":0},{"RT":2657,"time": "2018-08-15 06:14:15pm", "schedule_type": "STATIC", "schedule_name": "random_7", "is_biased_choice":false,"side_choice": "RIGHT", "trial_number":35,"observed_reward":0,"unobserved_reward":0},{"RT":2600,"time": "2018-08-15 06:14:18pm", "schedule_type": "STATIC", "schedule_name": "random_7", "is_biased_choice":true,"side_choice": "LEFT", "trial_number":36,"observed_reward":0,"unobserved_reward":0},{"RT":2384,"time": "2018-08-15 06:14:20pm", "schedule_type": "STATIC", "schedule_name": "random_7", "is_biased_choice":true,"side_choice": "LEFT", "trial_number":37,"observed_reward":1,"unobserved_reward":0},{"RT":2464,"time": "2018-08-15 06:14:22pm", "schedule_type": "STATIC", "schedule_name": "random_7", "is_biased_choice":true,"side_choice": "LEFT", "trial_number":38,"observed_reward":1,"unobserved_reward":0},{"RT":2624,"time": "2018-08-15 06:14:25pm", "schedule_type": "STATIC", "schedule_name": "random_7", "is_biased_choice":true,"side_choice": "LEFT", "trial_number":39,"observed_reward":1,"unobserved_reward":0},{"RT":2504,"time": "2018-08-15 06:14:28pm", "schedule_type": "STATIC", "schedule_name": "random_7", "is_biased_choice":true,"side_choice": "LEFT", "trial_number":40,"observed_reward":0,"unobserved_reward":0},{"RT":2713,"time": "2018-08-15 06:14:30pm", "schedule_type": "STATIC", "schedule_name": "random_7", "is_biased_choice":false,"side_choice": "RIGHT", "trial_number":41,"observed_reward":1,"unobserved_reward":0},{"RT":3551,"time": "2018-08-15 06:14:34pm", "schedule_type": "STATIC", "schedule_name": "random_7", "is_biased_choice":false,"side_choice": "RIGHT", "trial_number":42,"observed_reward":0,"unobserved_reward":0},{"RT":2680,"time": "2018-08-15 06:14:36pm", "schedule_type": "STATIC", "schedule_name": "random_7", "is_biased_choice":false,"side_choice": "RIGHT", "trial_number":43,"observed_reward":1,"unobserved_reward":0},{"RT":2568,"time": "2018-08-15 06:14:39pm", "schedule_type": "STATIC", "schedule_name": "random_7", "is_biased_choice":false,"side_choice": "RIGHT", "trial_number":44,"observed_reward":0,"unobserved_reward":0},{"RT":2384,"time": "2018-08-15 06:14:41pm", "schedule_type": "STATIC", "schedule_name": "random_7", "is_biased_choice":false,"side_choice": "RIGHT", "trial_number":45,"observed_reward":0,"unobserved_reward":0},{"RT":3152,"time": "2018-08-15 06:14:46pm", "schedule_type": "STATIC", "schedule_name": "random_7", "is_biased_choice":true,"side_choice": "LEFT", "trial_number":46,"observed_reward":0,"unobserved_reward":1},{"RT":2656,"time": "2018-08-15 06:14:47pm", "schedule_type": "STATIC", "schedule_name": "random_7", "is_biased_choice":true,"side_choice": "LEFT", "trial_number":47,"observed_reward":0,"unobserved_reward":0},{"RT":158009,"time": "2018-08-15 06:18:45pm", "schedule_type": "STATIC", "schedule_name": "random_7", "is_biased_choice":true,"side_choice": "LEFT", "trial_number":48,"observed_reward":0,"unobserved_reward":1},{"RT":2960,"time": "2018-08-15 06:18:47pm", "schedule_type": "STATIC", "schedule_name": "random_7", "is_biased_choice":true,"side_choice": "LEFT", "trial_number":49,"observed_reward":0,"unobserved_reward":0},{"RT":2473,"time": "2018-08-15 06:18:50pm", "schedule_type": "STATIC", "schedule_name": "random_7", "is_biased_choice":true,"side_choice": "LEFT", "trial_number":50,"observed_reward":0,"unobserved_reward":1},{"RT":2344,"time": "2018-08-15 06:18:52pm", "schedule_type": "STATIC", "schedule_name": "random_7", "is_biased_choice":true,"side_choice": "LEFT", "trial_number":51,"observed_reward":0,"unobserved_reward":0},{"RT":6096,"time": "2018-08-15 06:18:58pm", "schedule_type": "STATIC", "schedule_name": "random_7", "is_biased_choice":false,"side_choice": "RIGHT", "trial_number":52,"observed_reward":0,"unobserved_reward":1},{"RT":4263,"time": "2018-08-15 06:19:02pm", "schedule_type": "STATIC", "schedule_name": "random_7", "is_biased_choice":true,"side_choice": "LEFT", "trial_number":53,"observed_reward":0,"unobserved_reward":1},{"RT":2881,"time": "2018-08-15 06:19:05pm", "schedule_type": "STATIC", "schedule_name": "random_7", "is_biased_choice":true,"side_choice": "LEFT", "trial_number":54,"observed_reward":0,"unobserved_reward":0},{"RT":2480,"time": "2018-08-15 06:19:08pm", "schedule_type": "STATIC", "schedule_name": "random_7", "is_biased_choice":true,"side_choice": "LEFT", "trial_number":55,"observed_reward":0,"unobserved_reward":0},{"RT":2575,"time": "2018-08-15 06:19:10pm", "schedule_type": "STATIC", "schedule_name": "random_7", "is_biased_choice":true,"side_choice": "LEFT", "trial_number":56,"observed_reward":0,"unobserved_reward":0},{"RT":19074,"time": "2018-08-15 06:19:30pm", "schedule_type": "STATIC", "schedule_name": "random_7", "is_biased_choice":false,"side_choice": "RIGHT", "trial_number":57,"observed_reward":0,"unobserved_reward":1},{"RT":2991,"time": "2018-08-15 06:19:32pm", "schedule_type": "STATIC", "schedule_name": "random_7", "is_biased_choice":false,"side_choice": "RIGHT", "trial_number":58,"observed_reward":0,"unobserved_reward":0},{"RT":3873,"time": "2018-08-15 06:19:36pm", "schedule_type": "STATIC", "schedule_name": "random_7", "is_biased_choice":true,"side_choice": "LEFT", "trial_number":59,"observed_reward":0,"unobserved_reward":1},{"RT":3607,"time": "2018-08-15 06:19:40pm", "schedule_type": "STATIC", "schedule_name": "random_7", "is_biased_choice":false,"side_choice": "RIGHT", "trial_number":60,"observed_reward":0,"unobserved_reward":1},{"RT":2639,"time": "2018-08-15 06:19:43pm", "schedule_type": "STATIC", "schedule_name": "random_7", "is_biased_choice":false,"side_choice": "RIGHT", "trial_number":61,"observed_reward":0,"unobserved_reward":0},{"RT":2392,"time": "2018-08-15 06:19:45pm", "schedule_type": "STATIC", "schedule_name": "random_7", "is_biased_choice":false,"side_choice": "RIGHT", "trial_number":62,"observed_reward":0,"unobserved_reward":0},{"RT":2593,"time": "2018-08-15 06:19:47pm", "schedule_type": "STATIC", "schedule_name": "random_7", "is_biased_choice":false,"side_choice": "RIGHT", "trial_number":63,"observed_reward":0,"unobserved_reward":0},{"RT":3201,"time": "2018-08-15 06:19:51pm", "schedule_type": "STATIC", "schedule_name": "random_7", "is_biased_choice":true,"side_choice": "LEFT", "trial_number":64,"observed_reward":0,"unobserved_reward":1},{"RT":3759,"time": "2018-08-15 06:19:55pm", "schedule_type": "STATIC", "schedule_name": "random_7", "is_biased_choice":true,"side_choice": "LEFT", "trial_number":65,"observed_reward":0,"unobserved_reward":1},{"RT":2943,"time": "2018-08-15 06:19:57pm", "schedule_type": "STATIC", "schedule_name": "random_7", "is_biased_choice":true,"side_choice": "LEFT", "trial_number":66,"observed_reward":0,"unobserved_reward":0},{"RT":2641,"time": "2018-08-15 06:20:00pm", "schedule_type": "STATIC", "schedule_name": "random_7", "is_biased_choice":true,"side_choice": "LEFT", "trial_number":67,"observed_reward":0,"unobserved_reward":1},{"RT":2409,"time": "2018-08-15 06:20:02pm", "schedule_type": "STATIC", "schedule_name": "random_7", "is_biased_choice":true,"side_choice": "LEFT", "trial_number":68,"observed_reward":1,"unobserved_reward":1},{"RT":2751,"time": "2018-08-15 06:20:05pm", "schedule_type": "STATIC", "schedule_name": "random_7", "is_biased_choice":true,"side_choice": "LEFT", "trial_number":69,"observed_reward":0,"unobserved_reward":1},{"RT":2592,"time": "2018-08-15 06:20:08pm", "schedule_type": "STATIC", "schedule_name": "random_7", "is_biased_choice":true,"side_choice": "LEFT", "trial_number":70,"observed_reward":0,"unobserved_reward":0},{"RT":2360,"time": "2018-08-15 06:20:10pm", "schedule_type": "STATIC", "schedule_name": "random_7", "is_biased_choice":true,"side_choice": "LEFT", "trial_number":71,"observed_reward":0,"unobserved_reward":1},{"RT":2344,"time": "2018-08-15 06:20:12pm", "schedule_type": "STATIC", "schedule_name": "random_7", "is_biased_choice":true,"side_choice": "LEFT", "trial_number":72,"observed_reward":0,"unobserved_reward":0},{"RT":2912,"time": "2018-08-15 06:20:15pm", "schedule_type": "STATIC", "schedule_name": "random_7", "is_biased_choice":true,"side_choice": "LEFT", "trial_number":73,"observed_reward":0,"unobserved_reward":0},{"RT":3432,"time": "2018-08-15 06:20:19pm", "schedule_type": "STATIC", "schedule_name": "random_7", "is_biased_choice":true,"side_choice": "LEFT", "trial_number":74,"observed_reward":0,"unobserved_reward":0},{"RT":2360,"time": "2018-08-15 06:20:21pm", "schedule_type": "STATIC", "schedule_name": "random_7", "is_biased_choice":true,"side_choice": "LEFT", "trial_number":75,"observed_reward":0,"unobserved_reward":1},{"RT":3184,"time": "2018-08-15 06:20:25pm", "schedule_type": "STATIC", "schedule_name": "random_7", "is_biased_choice":true,"side_choice": "LEFT", "trial_number":76,"observed_reward":0,"unobserved_reward":0},{"RT":2321,"time": "2018-08-15 06:20:27pm", "schedule_type": "STATIC", "schedule_name": "random_7", "is_biased_choice":true,"side_choice": "LEFT", "trial_number":77,"observed_reward":0,"unobserved_reward":0},{"RT":2320,"time": "2018-08-15 06:20:29pm", "schedule_type": "STATIC", "schedule_name": "random_7", "is_biased_choice":true,"side_choice": "LEFT", "trial_number":78,"observed_reward":0,"unobserved_reward":1},{"RT":2359,"time": "2018-08-15 06:20:31pm", "schedule_type": "STATIC", "schedule_name": "random_7", "is_biased_choice":true,"side_choice": "LEFT", "trial_number":79,"observed_reward":0,"unobserved_reward":0},{"RT":2368,"time": "2018-08-15 06:20:34pm", "schedule_type": "STATIC", "schedule_name": "random_7", "is_biased_choice":true,"side_choice": "LEFT", "trial_number":80,"observed_reward":0,"unobserved_reward":0},{"RT":2312,"time": "2018-08-15 06:20:36pm", "schedule_type": "STATIC", "schedule_name": "random_7", "is_biased_choice":true,"side_choice": "LEFT", "trial_number":81,"observed_reward":0,"unobserved_reward":1},{"RT":2240,"time": "2018-08-15 06:20:38pm", "schedule_type": "STATIC", "schedule_name": "random_7", "is_biased_choice":true,"side_choice": "LEFT", "trial_number":82,"observed_reward":0,"unobserved_reward":0},{"RT":2360,"time": "2018-08-15 06:20:41pm", "schedule_type": "STATIC", "schedule_name": "random_7", "is_biased_choice":true,"side_choice": "LEFT", "trial_number":83,"observed_reward":0,"unobserved_reward":0},{"RT":2352,"time": "2018-08-15 06:20:43pm", "schedule_type": "STATIC", "schedule_name": "random_7", "is_biased_choice":true,"side_choice": "LEFT", "trial_number":84,"observed_reward":1,"unobserved_reward":0},{"RT":5601,"time": "2018-08-15 06:20:49pm", "schedule_type": "STATIC", "schedule_name": "random_7", "is_biased_choice":true,"side_choice": "LEFT", "trial_number":85,"observed_reward":0,"unobserved_reward":1},{"RT":2496,"time": "2018-08-15 06:20:51pm", "schedule_type": "STATIC", "schedule_name": "random_7", "is_biased_choice":true,"side_choice": "LEFT", "trial_number":86,"observed_reward":0,"unobserved_reward":0},{"RT":2720,"time": "2018-08-15 06:20:54pm", "schedule_type": "STATIC", "schedule_name": "random_7", "is_biased_choice":true,"side_choice": "LEFT", "trial_number":87,"observed_reward":0,"unobserved_reward":0},