[{"RT":3979,"time": "2018-07-29 03:45:27pm", "schedule_type": "STATIC", "schedule_name": "random_12", "is_biased_choice":false,"side_choice": "RIGHT", "trial_number":0,"observed_reward":0,"unobserved_reward":1},{"RT":5817,"time": "2018-07-29 03:45:33pm", "schedule_type": "STATIC", "schedule_name": "random_12", "is_biased_choice":true,"side_choice": "LEFT", "trial_number":1,"observed_reward":1,"unobserved_reward":1},{"RT":3551,"time": "2018-07-29 03:45:37pm", "schedule_type": "STATIC", "schedule_name": "random_12", "is_biased_choice":true,"side_choice": "LEFT", "trial_number":2,"observed_reward":0,"unobserved_reward":0},{"RT":3688,"time": "2018-07-29 03:45:40pm", "schedule_type": "STATIC", "schedule_name": "random_12", "is_biased_choice":true,"side_choice": "LEFT", "trial_number":3,"observed_reward":0,"unobserved_reward":0},{"RT":3151,"time": "2018-07-29 03:45:44pm", "schedule_type": "STATIC", "schedule_name": "random_12", "is_biased_choice":true,"side_choice": "LEFT", "trial_number":4,"observed_reward":0,"unobserved_reward":0},{"RT":2706,"time": "2018-07-29 03:45:46pm", "schedule_type": "STATIC", "schedule_name": "random_12", "is_biased_choice":false,"side_choice": "RIGHT", "trial_number":5,"observed_reward":0,"unobserved_reward":0},{"RT":2528,"time": "2018-07-29 03:45:49pm", "schedule_type": "STATIC", "schedule_name": "random_12", "is_biased_choice":true,"side_choice": "LEFT", "trial_number":6,"observed_reward":0,"unobserved_reward":1},{"RT":3128,"time": "2018-07-29 03:45:52pm", "schedule_type": "STATIC", "schedule_name": "random_12", "is_biased_choice":true,"side_choice": "LEFT", "trial_number":7,"observed_reward":0,"unobserved_reward":0},{"RT":8192,"time": "2018-07-29 03:46:00pm", "schedule_type": "STATIC", "schedule_name": "random_12", "is_biased_choice":false,"side_choice": "RIGHT", "trial_number":8,"observed_reward":0,"unobserved_reward":0},{"RT":2984,"time": "2018-07-29 03:46:03pm", "schedule_type": "STATIC", "schedule_name": "random_12", "is_biased_choice":true,"side_choice": "LEFT", "trial_number":9,"observed_reward":1,"unobserved_reward":1},{"RT":2704,"time": "2018-07-29 03:46:06pm", "schedule_type": "STATIC", "schedule_name": "random_12", "is_biased_choice":true,"side_choice": "LEFT", "trial_number":10,"observed_reward":0,"unobserved_reward":0},{"RT":3079,"time": "2018-07-29 03:46:09pm", "schedule_type": "STATIC", "schedule_name": "random_12", "is_biased_choice":true,"side_choice": "LEFT", "trial_number":11,"observed_reward":0,"unobserved_reward":1},{"RT":4248,"time": "2018-07-29 03:46:13pm", "schedule_type": "STATIC", "schedule_name": "random_12", "is_biased_choice":true,"side_choice": "LEFT", "trial_number":12,"observed_reward":0,"unobserved_reward":0},{"RT":2961,"time": "2018-07-29 03:46:16pm", "schedule_type": "STATIC", "schedule_name": "random_12", "is_biased_choice":false,"side_choice": "RIGHT", "trial_number":13,"observed_reward":1,"unobserved_reward":0},{"RT":3039,"time": "2018-07-29 03:46:19pm", "schedule_type": "STATIC", "schedule_name": "random_12", "is_biased_choice":false,"side_choice": "RIGHT", "trial_number":14,"observed_reward":0,"unobserved_reward":0},{"RT":2568,"time": "2018-07-29 03:46:22pm", "schedule_type": "STATIC", "schedule_name": "random_12", "is_biased_choice":false,"side_choice": "RIGHT", "trial_number":15,"observed_reward":0,"unobserved_reward":1},{"RT":2464,"time": "2018-07-29 03:46:24pm", "schedule_type": "STATIC", "schedule_name": "random_12", "is_biased_choice":true,"side_choice": "LEFT", "trial_number":16,"observed_reward":0,"unobserved_reward":0},{"RT":2560,"time": "2018-07-29 03:46:27pm", "schedule_type": "STATIC", "schedule_name": "random_12", "is_biased_choice":true,"side_choice": "LEFT", "trial_number":17,"observed_reward":0,"unobserved_reward":0},{"RT":2544,"time": "2018-07-29 03:46:29pm", "schedule_type": "STATIC", "schedule_name": "random_12", "is_biased_choice":true,"side_choice": "LEFT", "trial_number":18,"observed_reward":1,"unobserved_reward":0},{"RT":2912,"time": "2018-07-29 03:46:32pm", "schedule_type": "STATIC", "schedule_name": "random_12", "is_biased_choice":true,"side_choice": "LEFT", "trial_number":19,"observed_reward":1,"unobserved_reward":0},{"RT":2336,"time": "2018-07-29 03:46:35pm", "schedule_type": "STATIC", "schedule_name": "random_12", "is_biased_choice":true,"side_choice": "LEFT", "trial_number":20,"observed_reward":0,"unobserved_reward":0},{"RT":2487,"time": "2018-07-29 03:46:37pm", "schedule_type": "STATIC", "schedule_name": "random_12", "is_biased_choice":true,"side_choice": "LEFT", "trial_number":21,"observed_reward":0,"unobserved_reward":0},{"RT":2249,"time": "2018-07-29 03:46:39pm", "schedule_type": "STATIC", "schedule_name": "random_12", "is_biased_choice":true,"side_choice": "LEFT", "trial_number":22,"observed_reward":1,"unobserved_reward":0},{"RT":2328,"time": "2018-07-29 03:46:41pm", "schedule_type": "STATIC", "schedule_name": "random_12", "is_biased_choice":true,"side_choice": "LEFT", "trial_number":23,"observed_reward":0,"unobserved_reward":1},{"RT":2271,"time": "2018-07-29 03:46:44pm", "schedule_type": "STATIC", "schedule_name": "random_12", "is_biased_choice":true,"side_choice": "LEFT", "trial_number":24,"observed_reward":0,"unobserved_reward":0},{"RT":2321,"time": "2018-07-29 03:46:46pm", "schedule_type": "STATIC", "schedule_name": "random_12", "is_biased_choice":true,"side_choice": "LEFT", "trial_number":25,"observed_reward":0,"unobserved_reward":1},{"RT":2384,"time": "2018-07-29 03:46:48pm", "schedule_type": "STATIC", "schedule_name": "random_12", "is_biased_choice":true,"side_choice": "LEFT", "trial_number":26,"observed_reward":0,"unobserved_reward":1},{"RT":2280,"time": "2018-07-29 03:46:51pm", "schedule_type": "STATIC", "schedule_name": "random_12", "is_biased_choice":true,"side_choice": "LEFT", "trial_number":27,"observed_reward":1,"unobserved_reward":0},{"RT":2904,"time": "2018-07-29 03:46:54pm", "schedule_type": "STATIC", "schedule_name": "random_12", "is_biased_choice":false,"side_choice": "RIGHT", "trial_number":28,"observed_reward":1,"unobserved_reward":0},{"RT":2536,"time": "2018-07-29 03:46:56pm", "schedule_type": "STATIC", "schedule_name": "random_12", "is_biased_choice":true,"side_choice": "LEFT", "trial_number":29,"observed_reward":0,"unobserved_reward":0},{"RT":2816,"time": "2018-07-29 03:46:59pm", "schedule_type": "STATIC", "schedule_name": "random_12", "is_biased_choice":true,"side_choice": "LEFT", "trial_number":30,"observed_reward":0,"unobserved_reward":1},{"RT":2512,"time": "2018-07-29 03:47:01pm", "schedule_type": "STATIC", "schedule_name": "random_12", "is_biased_choice":false,"side_choice": "RIGHT", "trial_number":31,"observed_reward":0,"unobserved_reward":0},{"RT":2464,"time": "2018-07-29 03:47:04pm", "schedule_type": "STATIC", "schedule_name": "random_12", "is_biased_choice":true,"side_choice": "LEFT", "trial_number":32,"observed_reward":0,"unobserved_reward":1},{"RT":2912,"time": "2018-07-29 03:47:07pm", "schedule_type": "STATIC", "schedule_name": "random_12", "is_biased_choice":true,"side_choice": "LEFT", "trial_number":33,"observed_reward":1,"unobserved_reward":0},{"RT":2976,"time": "2018-07-29 03:47:10pm", "schedule_type": "STATIC", "schedule_name": "random_12", "is_biased_choice":false,"side_choice": "RIGHT", "trial_number":34,"observed_reward":0,"unobserved_reward":0},{"RT":3600,"time": "2018-07-29 03:47:14pm", "schedule_type": "STATIC", "schedule_name": "random_12", "is_biased_choice":false,"side_choice": "RIGHT", "trial_number":35,"observed_reward":0,"unobserved_reward":0},{"RT":2487,"time": "2018-07-29 03:47:16pm", "schedule_type": "STATIC", "schedule_name": "random_12", "is_biased_choice":true,"side_choice": "LEFT", "trial_number":36,"observed_reward":0,"unobserved_reward":0},{"RT":2665,"time": "2018-07-29 03:47:19pm", "schedule_type": "STATIC", "schedule_name": "random_12", "is_biased_choice":true,"side_choice": "LEFT", "trial_number":37,"observed_reward":0,"unobserved_reward":0},{"RT":2335,"time": "2018-07-29 03:47:21pm", "schedule_type": "STATIC", "schedule_name": "random_12", "is_biased_choice":true,"side_choice": "LEFT", "trial_number":38,"observed_reward":0,"unobserved_reward":0},{"RT":2481,"time": "2018-07-29 03:47:24pm", "schedule_type": "STATIC", "schedule_name": "random_12", "is_biased_choice":true,"side_choice": "LEFT", "trial_number":39,"observed_reward":0,"unobserved_reward":0},{"RT":2527,"time": "2018-07-29 03:47:26pm", "schedule_type": "STATIC", "schedule_name": "random_12", "is_biased_choice":true,"side_choice": "LEFT", "trial_number":40,"observed_reward":0,"unobserved_reward":0},{"RT":2336,"time": "2018-07-29 03:47:28pm", "schedule_type": "STATIC", "schedule_name": "random_12", "is_biased_choice":true,"side_choice": "LEFT", "trial_number":41,"observed_reward":0,"unobserved_reward":1},{"RT":2208,"time": "2018-07-29 03:47:30pm", "schedule_type": "STATIC", "schedule_name": "random_12", "is_biased_choice":true,"side_choice": "LEFT", "trial_number":42,"observed_reward":0,"unobserved_reward":0},{"RT":2280,"time": "2018-07-29 03:47:33pm", "schedule_type": "STATIC", "schedule_name": "random_12", "is_biased_choice":false,"side_choice": "RIGHT", "trial_number":43,"observed_reward":0,"unobserved_reward":0},{"RT":2384,"time": "2018-07-29 03:47:35pm", "schedule_type": "STATIC", "schedule_name": "random_12", "is_biased_choice":true,"side_choice": "LEFT", "trial_number":44,"observed_reward":0,"unobserved_reward":1},{"RT":2488,"time": "2018-07-29 03:47:38pm", "schedule_type": "STATIC", "schedule_name": "random_12", "is_biased_choice":true,"side_choice": "LEFT", "trial_number":45,"observed_reward":1,"unobserved_reward":1},{"RT":3408,"time": "2018-07-29 03:47:41pm", "schedule_type": "STATIC", "schedule_name": "random_12", "is_biased_choice":true,"side_choice": "LEFT", "trial_number":46,"observed_reward":1,"unobserved_reward":0},{"RT":2856,"time": "2018-07-29 03:47:44pm", "schedule_type": "STATIC", "schedule_name": "random_12", "is_biased_choice":true,"side_choice": "LEFT", "trial_number":47,"observed_reward":0,"unobserved_reward":0},{"RT":3256,"time": "2018-07-29 03:47:47pm", "schedule_type": "STATIC", "schedule_name": "random_12", "is_biased_choice":true,"side_choice": "LEFT", "trial_number":48,"observed_reward":0,"unobserved_reward":0},{"RT":2257,"time": "2018-07-29 03:47:49pm", "schedule_type": "STATIC", "schedule_name": "random_12", "is_biased_choice":false,"side_choice": "RIGHT", "trial_number":49,"observed_reward":0,"unobserved_reward":0},{"RT":2400,"time": "2018-07-29 03:47:52pm", "schedule_type": "STATIC", "schedule_name": "random_12", "is_biased_choice":true,"side_choice": "LEFT", "trial_number":50,"observed_reward":0,"unobserved_reward":0},{"RT":16087,"time": "2018-07-29 03:48:08pm", "schedule_type": "STATIC", "schedule_name": "random_12", "is_biased_choice":true,"side_choice": "LEFT", "trial_number":51,"observed_reward":0,"unobserved_reward":0},{"RT":4967,"time": "2018-07-29 03:48:13pm", "schedule_type": "STATIC", "schedule_name": "random_12", "is_biased_choice":false,"side_choice": "RIGHT", "trial_number":52,"observed_reward":1,"unobserved_reward":0},{"RT":3161,"time": "2018-07-29 03:48:16pm", "schedule_type": "STATIC", "schedule_name": "random_12", "is_biased_choice":true,"side_choice": "LEFT", "trial_number":53,"observed_reward":0,"unobserved_reward":0},{"RT":2847,"time": "2018-07-29 03:48:19pm", "schedule_type": "STATIC", "schedule_name": "random_12", "is_biased_choice":false,"side_choice": "RIGHT", "trial_number":54,"observed_reward":0,"unobserved_reward":0},{"RT":2937,"time": "2018-07-29 03:48:22pm", "schedule_type": "STATIC", "schedule_name": "random_12", "is_biased_choice":true,"side_choice": "LEFT", "trial_number":55,"observed_reward":0,"unobserved_reward":0},{"RT":2304,"time": "2018-07-29 03:48:24pm", "schedule_type": "STATIC", "schedule_name": "random_12", "is_biased_choice":true,"side_choice": "LEFT", "trial_number":56,"observed_reward":0,"unobserved_reward":0},{"RT":2359,"time": "2018-07-29 03:48:26pm", "schedule_type": "STATIC", "schedule_name": "random_12", "is_biased_choice":true,"side_choice": "LEFT", "trial_number":57,"observed_reward":0,"unobserved_reward":0},{"RT":2280,"time": "2018-07-29 03:48:29pm", "schedule_type": "STATIC", "schedule_name": "random_12", "is_biased_choice":true,"side_choice": "LEFT", "trial_number":58,"observed_reward":0,"unobserved_reward":0},{"RT":2488,"time": "2018-07-29 03:48:31pm", "schedule_type": "STATIC", "schedule_name": "random_12", "is_biased_choice":false,"side_choice": "RIGHT", "trial_number":59,"observed_reward":1,"unobserved_reward":0},{"RT":2472,"time": "2018-07-29 03:48:34pm", "schedule_type": "STATIC", "schedule_name": "random_12", "is_biased_choice":true,"side_choice": "LEFT", "trial_number":60,"observed_reward":0,"unobserved_reward":1},{"RT":2400,"time": "2018-07-29 03:48:36pm", "schedule_type": "STATIC", "schedule_name": "random_12", "is_biased_choice":false,"side_choice": "RIGHT", "trial_number":61,"observed_reward":0,"unobserved_reward":0},{"RT":2343,"time": "2018-07-29 03:48:38pm", "schedule_type": "STATIC", "schedule_name": "random_12", "is_biased_choice":true,"side_choice": "LEFT", "trial_number":62,"observed_reward":0,"unobserved_reward":0},{"RT":2424,"time": "2018-07-29 03:48:41pm", "schedule_type": "STATIC", "schedule_name": "random_12", "is_biased_choice":true,"side_choice": "LEFT", "trial_number":63,"observed_reward":0,"unobserved_reward":1},{"RT":2400,"time": "2018-07-29 03:48:43pm", "schedule_type": "STATIC", "schedule_name": "random_12", "is_biased_choice":true,"side_choice": "LEFT", "trial_number":64,"observed_reward":1,"unobserved_reward":0},{"RT":17666,"time": "2018-07-29 03:49:01pm", "schedule_type": "STATIC", "schedule_name": "random_12", "is_biased_choice":true,"side_choice": "LEFT", "trial_number":65,"observed_reward":0,"unobserved_reward":0},{"RT":4848,"time": "2018-07-29 03:49:06pm", "schedule_type": "STATIC", "schedule_name": "random_12", "is_biased_choice":false,"side_choice": "RIGHT", "trial_number":66,"observed_reward":1,"unobserved_reward":1},{"RT":2327,"time": "2018-07-29 03:49:08pm", "schedule_type": "STATIC", "schedule_name": "random_12", "is_biased_choice":false,"side_choice": "RIGHT", "trial_number":67,"observed_reward":0,"unobserved_reward":0},{"RT":2312,"time": "2018-07-29 03:49:10pm", "schedule_type": "STATIC", "schedule_name": "random_12", "is_biased_choice":true,"side_choice": "LEFT", "trial_number":68,"observed_reward":0,"unobserved_reward":0},{"RT":9728,"time": "2018-07-29 03:49:20pm", "schedule_type": "STATIC", "schedule_name": "random_12", "is_biased_choice":false,"side_choice": "RIGHT", "trial_number":69,"observed_reward":0,"unobserved_reward":1},{"RT":2784,"time": "2018-07-29 03:49:23pm", "schedule_type": "STATIC", "schedule_name": "random_12", "is_biased_choice":true,"side_choice": "LEFT", "trial_number":70,"observed_reward":0,"unobserved_reward":0},{"RT":2272,"time": "2018-07-29 03:49:25pm", "schedule_type": "STATIC", "schedule_name": "random_12", "is_biased_choice":false,"side_choice": "RIGHT", "trial_number":71,"observed_reward":0,"unobserved_reward":0},{"RT":2496,"time": "2018-07-29 03:49:28pm", "schedule_type": "STATIC", "schedule_name": "random_12", "is_biased_choice":true,"side_choice": "LEFT", "trial_number":72,"observed_reward":1,"unobserved_reward":0},{"RT":2295,"time": "2018-07-29 03:49:30pm", "schedule_type": "STATIC", "schedule_name": "random_12", "is_biased_choice":true,"side_choice": "LEFT", "trial_number":73,"observed_reward":1,"unobserved_reward":1},{"RT":2617,"time": "2018-07-29 03:49:33pm", "schedule_type": "STATIC", "schedule_name": "random_12", "is_biased_choice":true,"side_choice": "LEFT", "trial_number":74,"observed_reward":0,"unobserved_reward":1},{"RT":2247,"time": "2018-07-29 03:49:35pm", "schedule_type": "STATIC", "schedule_name": "random_12", "is_biased_choice":true,"side_choice": "LEFT", "trial_number":75,"observed_reward":0,"unobserved_reward":0},{"RT":2304,"time": "2018-07-29 03:49:37pm", "schedule_type": "STATIC", "schedule_name": "random_12", "is_biased_choice":true,"side_choice": "LEFT", "trial_number":76,"observed_reward":0,"unobserved_reward":0},{"RT":2400,"time": "2018-07-29 03:49:40pm", "schedule_type": "STATIC", "schedule_name": "random_12", "is_biased_choice":true,"side_choice": "LEFT", "trial_number":77,"observed_reward":0,"unobserved_reward":1},{"RT":2249,"time": "2018-07-29 03:49:42pm", "schedule_type": "STATIC", "schedule_name": "random_12", "is_biased_choice":true,"side_choice": "LEFT", "trial_number":78,"observed_reward":0,"unobserved_reward":0},{"RT":2239,"time": "2018-07-29 03:49:44pm", "schedule_type": "STATIC", "schedule_name": "random_12", "is_biased_choice":true,"side_choice": "LEFT", "trial_number":79,"observed_reward":0,"unobserved_reward":0},{"RT":2200,"time": "2018-07-29 03:49:46pm", "schedule_type": "STATIC", "schedule_name": "random_12", "is_biased_choice":true,"side_choice": "LEFT", "trial_number":80,"observed_reward":0,"unobserved_reward":1},{"RT":2377,"time": "2018-07-29 03:49:49pm", "schedule_type": "STATIC", "schedule_name": "random_12", "is_biased_choice":true,"side_choice": "LEFT", "trial_number":81,"observed_reward":0,"unobserved_reward":0},{"RT":2175,"time": "2018-07-29 03:49:51pm", "schedule_type": "STATIC", "schedule_name": "random_12", "is_biased_choice":true,"side_choice": "LEFT", "trial_number":82,"observed_reward":0,"unobserved_reward":0},{"RT":2224,"time": "2018-07-29 03:49:53pm", "schedule_type": "STATIC", "schedule_name": "random_12", "is_biased_choice":true,"side_choice": "LEFT", "trial_number":83,"observed_reward":0,"unobserved_reward":1},{"RT":2320,"time": "2018-07-29 03:49:56pm", "schedule_type": "STATIC", "schedule_name": "random_12", "is_biased_choice":true,"side_choice": "LEFT", "trial_number":84,"observed_reward":1,"unobserved_reward":0},{"RT":4377,"time": "2018-07-29 03:50:00pm", "schedule_type": "STATIC", "schedule_name": "random_12", "is_biased_choice":true,"side_choice": "LEFT", "trial_number":85,"observed_reward":0,"unobserved_reward":0},{"RT":2832,"time": "2018-07-29 03:50:03pm", "schedule_type": "STATIC", "schedule_name": "random_12", "is_biased_choice":true,"side_choice": "LEFT", "trial_number":86,"observed_reward":1,"unobserved_reward":0},{"RT":2552,"time": "2018-07-29 03:50:05pm", "schedule_type": "STATIC", "schedule_name": "random_12", "is_biased_choice":true,"side_choice": "LEFT", "trial_number":87,"observed_reward":0,"unobserved_reward":0},{"RT":2464,"time": "2018-07-29 03:50:08pm", "schedule_type": "STATIC", "schedule_name": "random_12", "is_biased_choice":true,"side_choice": "LEFT", "trial_number":88,"observed_reward":0,"unobserved_reward":0},{"RT":2431,"time": "2018-07-29 03:50:10pm", "schedule_type": "STATIC", "schedule_name": "random_12", "is_biased_choice":false,"side_choice": "RIGHT", "trial_number":89,"observed_reward":0,"unobserved_reward":0},{"RT":2193,"time": "2018-07-29 03:50:12pm", "schedule_type": "STATIC", "schedule_name": "random_12", "is_biased_choice":true,"side_choice": "LEFT", "trial_number":90,"observed_reward":0,"unobserved_reward":0},{"RT":2312,"time": "2018-07-29 03:50:15pm", "schedule_type": "STATIC", "schedule_name": "random_12", "is_biased_choice":true,"side_choice": "LEFT", "trial_number":91,"observed_reward":1,"unobserved_reward":0},{"RT":2456,"time": "2018-07-29 03:50:17pm", "schedule_type": "STATIC", "schedule_name": "random_12", "is_biased_choice":true,"side_choice": "LEFT", "trial_number":92,"observed_reward":1,"unobserved_reward":0},{"RT":2368,"time": "2018-07-29 03:50:19pm", "schedule_type": "STATIC", "schedule_name": "random_12", "is_biased_choice":true,"side_choice": "LEFT", "trial_number":93,"observed_reward":1,"unobserved_reward":0},{"RT":2280,"time": "2018-07-29 03:50:22pm", "schedule_type": "STATIC", "schedule_name": "random_12", "is_biased_choice":true,"side_choice": "LEFT", "trial_number":94,"observed_reward":1,"unobserved_reward":0},{"RT":2304,"time": "2018-07-29 03:50:24pm", "schedule_type": "STATIC", "schedule_name": "random_12", "is_biased_choice":true,"side_choice": "LEFT", "trial_number":95,"observed_reward":1,"unobserved_reward":1},{"RT":2352,"time": "2018-07-29 03:50:26pm", "schedule_type": "STATIC", "schedule_name": "random_12", "is_biased_choice":true,"side_choice": "LEFT", "trial_number":96,"observed_reward":0,"unobserved_reward":0},{"RT":2303,"time": "2018-07-29 03:50:29pm", "schedule_type": "STATIC", "schedule_name": "random_12", "is_biased_choice":true,"side_choice": "LEFT", "trial_number":97,"observed_reward":1,"unobserved_reward":0},{"RT":2408,"time": "2018-07-29 03:50:31pm", "schedule_type": "STATIC", "schedule_name": "random_12", "is_biased_choice":true,"side_choice": "LEFT", "trial_number":98,"observed_reward":1,"unobserved_reward":0},{"RT":2272,"time": "2018-07-29 03:50:33pm", "schedule_type": "STATIC", "schedule_name": "random_12", "is_biased_choice":true,"side_choice": "LEFT", "trial_number":99,"observed_reward":0,"unobserved_reward":0}]