[{"RT":15433,"time": "2018-08-15 01:43:43pm", "schedule_type": "STATIC", "schedule_name": "random_12", "is_biased_choice":false,"side_choice": "RIGHT", "trial_number":0,"observed_reward":0,"unobserved_reward":1},{"RT":5903,"time": "2018-08-15 01:43:49pm", "schedule_type": "STATIC", "schedule_name": "random_12", "is_biased_choice":false,"side_choice": "RIGHT", "trial_number":1,"observed_reward":1,"unobserved_reward":1},{"RT":5904,"time": "2018-08-15 01:43:55pm", "schedule_type": "STATIC", "schedule_name": "random_12", "is_biased_choice":false,"side_choice": "RIGHT", "trial_number":2,"observed_reward":0,"unobserved_reward":0},{"RT":4952,"time": "2018-08-15 01:44:00pm", "schedule_type": "STATIC", "schedule_name": "random_12", "is_biased_choice":true,"side_choice": "LEFT", "trial_number":3,"observed_reward":0,"unobserved_reward":0},{"RT":3767,"time": "2018-08-15 01:44:04pm", "schedule_type": "STATIC", "schedule_name": "random_12", "is_biased_choice":true,"side_choice": "LEFT", "trial_number":4,"observed_reward":0,"unobserved_reward":0},{"RT":3072,"time": "2018-08-15 01:44:07pm", "schedule_type": "STATIC", "schedule_name": "random_12", "is_biased_choice":false,"side_choice": "RIGHT", "trial_number":5,"observed_reward":0,"unobserved_reward":0},{"RT":2848,"time": "2018-08-15 01:44:09pm", "schedule_type": "STATIC", "schedule_name": "random_12", "is_biased_choice":false,"side_choice": "RIGHT", "trial_number":6,"observed_reward":1,"unobserved_reward":0},{"RT":3649,"time": "2018-08-15 01:44:13pm", "schedule_type": "STATIC", "schedule_name": "random_12", "is_biased_choice":true,"side_choice": "LEFT", "trial_number":7,"observed_reward":0,"unobserved_reward":0},{"RT":2664,"time": "2018-08-15 01:44:16pm", "schedule_type": "STATIC", "schedule_name": "random_12", "is_biased_choice":true,"side_choice": "LEFT", "trial_number":8,"observed_reward":0,"unobserved_reward":0},{"RT":3848,"time": "2018-08-15 01:44:20pm", "schedule_type": "STATIC", "schedule_name": "random_12", "is_biased_choice":true,"side_choice": "LEFT", "trial_number":9,"observed_reward":1,"unobserved_reward":1},{"RT":7423,"time": "2018-08-15 01:44:27pm", "schedule_type": "STATIC", "schedule_name": "random_12", "is_biased_choice":false,"side_choice": "RIGHT", "trial_number":10,"observed_reward":0,"unobserved_reward":0},{"RT":2832,"time": "2018-08-15 01:44:30pm", "schedule_type": "STATIC", "schedule_name": "random_12", "is_biased_choice":false,"side_choice": "RIGHT", "trial_number":11,"observed_reward":1,"unobserved_reward":0},{"RT":4096,"time": "2018-08-15 01:44:34pm", "schedule_type": "STATIC", "schedule_name": "random_12", "is_biased_choice":true,"side_choice": "LEFT", "trial_number":12,"observed_reward":0,"unobserved_reward":0},{"RT":4433,"time": "2018-08-15 01:44:38pm", "schedule_type": "STATIC", "schedule_name": "random_12", "is_biased_choice":false,"side_choice": "RIGHT", "trial_number":13,"observed_reward":1,"unobserved_reward":0},{"RT":21535,"time": "2018-08-15 01:45:00pm", "schedule_type": "STATIC", "schedule_name": "random_12", "is_biased_choice":false,"side_choice": "RIGHT", "trial_number":14,"observed_reward":0,"unobserved_reward":0},{"RT":2953,"time": "2018-08-15 01:45:03pm", "schedule_type": "STATIC", "schedule_name": "random_12", "is_biased_choice":false,"side_choice": "RIGHT", "trial_number":15,"observed_reward":0,"unobserved_reward":1},{"RT":2895,"time": "2018-08-15 01:45:06pm", "schedule_type": "STATIC", "schedule_name": "random_12", "is_biased_choice":false,"side_choice": "RIGHT", "trial_number":16,"observed_reward":0,"unobserved_reward":0},{"RT":3032,"time": "2018-08-15 01:45:09pm", "schedule_type": "STATIC", "schedule_name": "random_12", "is_biased_choice":false,"side_choice": "RIGHT", "trial_number":17,"observed_reward":0,"unobserved_reward":0},{"RT":3536,"time": "2018-08-15 01:45:13pm", "schedule_type": "STATIC", "schedule_name": "random_12", "is_biased_choice":false,"side_choice": "RIGHT", "trial_number":18,"observed_reward":0,"unobserved_reward":1},{"RT":2664,"time": "2018-08-15 01:45:15pm", "schedule_type": "STATIC", "schedule_name": "random_12", "is_biased_choice":true,"side_choice": "LEFT", "trial_number":19,"observed_reward":1,"unobserved_reward":0},{"RT":3056,"time": "2018-08-15 01:45:18pm", "schedule_type": "STATIC", "schedule_name": "random_12", "is_biased_choice":true,"side_choice": "LEFT", "trial_number":20,"observed_reward":0,"unobserved_reward":0},{"RT":2719,"time": "2018-08-15 01:45:21pm", "schedule_type": "STATIC", "schedule_name": "random_12", "is_biased_choice":false,"side_choice": "RIGHT", "trial_number":21,"observed_reward":0,"unobserved_reward":0},{"RT":8289,"time": "2018-08-15 01:45:29pm", "schedule_type": "STATIC", "schedule_name": "random_12", "is_biased_choice":false,"side_choice": "RIGHT", "trial_number":22,"observed_reward":0,"unobserved_reward":1},{"RT":2696,"time": "2018-08-15 01:45:32pm", "schedule_type": "STATIC", "schedule_name": "random_12", "is_biased_choice":true,"side_choice": "LEFT", "trial_number":23,"observed_reward":0,"unobserved_reward":1},{"RT":2976,"time": "2018-08-15 01:45:35pm", "schedule_type": "STATIC", "schedule_name": "random_12", "is_biased_choice":true,"side_choice": "LEFT", "trial_number":24,"observed_reward":0,"unobserved_reward":0},{"RT":2960,"time": "2018-08-15 01:45:38pm", "schedule_type": "STATIC", "schedule_name": "random_12", "is_biased_choice":true,"side_choice": "LEFT", "trial_number":25,"observed_reward":0,"unobserved_reward":1},{"RT":2624,"time": "2018-08-15 01:45:40pm", "schedule_type": "STATIC", "schedule_name": "random_12", "is_biased_choice":true,"side_choice": "LEFT", "trial_number":26,"observed_reward":0,"unobserved_reward":1},{"RT":2992,"time": "2018-08-15 01:45:44pm", "schedule_type": "STATIC", "schedule_name": "random_12", "is_biased_choice":false,"side_choice": "RIGHT", "trial_number":27,"observed_reward":0,"unobserved_reward":1},{"RT":2763,"time": "2018-08-15 01:45:46pm", "schedule_type": "STATIC", "schedule_name": "random_12", "is_biased_choice":true,"side_choice": "LEFT", "trial_number":28,"observed_reward":0,"unobserved_reward":1},{"RT":2773,"time": "2018-08-15 01:45:49pm", "schedule_type": "STATIC", "schedule_name": "random_12", "is_biased_choice":true,"side_choice": "LEFT", "trial_number":29,"observed_reward":0,"unobserved_reward":0},{"RT":2831,"time": "2018-08-15 01:45:52pm", "schedule_type": "STATIC", "schedule_name": "random_12", "is_biased_choice":false,"side_choice": "RIGHT", "trial_number":30,"observed_reward":1,"unobserved_reward":0},{"RT":4328,"time": "2018-08-15 01:45:56pm", "schedule_type": "STATIC", "schedule_name": "random_12", "is_biased_choice":true,"side_choice": "LEFT", "trial_number":31,"observed_reward":0,"unobserved_reward":0},{"RT":2625,"time": "2018-08-15 01:45:59pm", "schedule_type": "STATIC", "schedule_name": "random_12", "is_biased_choice":false,"side_choice": "RIGHT", "trial_number":32,"observed_reward":1,"unobserved_reward":0},{"RT":3046,"time": "2018-08-15 01:46:02pm", "schedule_type": "STATIC", "schedule_name": "random_12", "is_biased_choice":true,"side_choice": "LEFT", "trial_number":33,"observed_reward":1,"unobserved_reward":0},{"RT":2833,"time": "2018-08-15 01:46:05pm", "schedule_type": "STATIC", "schedule_name": "random_12", "is_biased_choice":false,"side_choice": "RIGHT", "trial_number":34,"observed_reward":0,"unobserved_reward":0},{"RT":2744,"time": "2018-08-15 01:46:07pm", "schedule_type": "STATIC", "schedule_name": "random_12", "is_biased_choice":false,"side_choice": "RIGHT", "trial_number":35,"observed_reward":0,"unobserved_reward":0},{"RT":2592,"time": "2018-08-15 01:46:10pm", "schedule_type": "STATIC", "schedule_name": "random_12", "is_biased_choice":true,"side_choice": "LEFT", "trial_number":36,"observed_reward":0,"unobserved_reward":0},{"RT":2728,"time": "2018-08-15 01:46:13pm", "schedule_type": "STATIC", "schedule_name": "random_12", "is_biased_choice":false,"side_choice": "RIGHT", "trial_number":37,"observed_reward":0,"unobserved_reward":0},{"RT":2880,"time": "2018-08-15 01:46:15pm", "schedule_type": "STATIC", "schedule_name": "random_12", "is_biased_choice":false,"side_choice": "RIGHT", "trial_number":38,"observed_reward":0,"unobserved_reward":0},{"RT":2648,"time": "2018-08-15 01:46:18pm", "schedule_type": "STATIC", "schedule_name": "random_12", "is_biased_choice":false,"side_choice": "RIGHT", "trial_number":39,"observed_reward":0,"unobserved_reward":0},{"RT":3671,"time": "2018-08-15 01:46:22pm", "schedule_type": "STATIC", "schedule_name": "random_12", "is_biased_choice":false,"side_choice": "RIGHT", "trial_number":40,"observed_reward":0,"unobserved_reward":0},{"RT":2728,"time": "2018-08-15 01:46:26pm", "schedule_type": "STATIC", "schedule_name": "random_12", "is_biased_choice":true,"side_choice": "LEFT", "trial_number":41,"observed_reward":0,"unobserved_reward":1},{"RT":2744,"time": "2018-08-15 01:46:28pm", "schedule_type": "STATIC", "schedule_name": "random_12", "is_biased_choice":true,"side_choice": "LEFT", "trial_number":42,"observed_reward":0,"unobserved_reward":0},{"RT":2728,"time": "2018-08-15 01:46:30pm", "schedule_type": "STATIC", "schedule_name": "random_12", "is_biased_choice":true,"side_choice": "LEFT", "trial_number":43,"observed_reward":0,"unobserved_reward":0},{"RT":3432,"time": "2018-08-15 01:46:34pm", "schedule_type": "STATIC", "schedule_name": "random_12", "is_biased_choice":false,"side_choice": "RIGHT", "trial_number":44,"observed_reward":1,"unobserved_reward":0},{"RT":9762,"time": "2018-08-15 01:46:43pm", "schedule_type": "STATIC", "schedule_name": "random_12", "is_biased_choice":true,"side_choice": "LEFT", "trial_number":45,"observed_reward":1,"unobserved_reward":1},{"RT":3639,"time": "2018-08-15 01:46:47pm", "schedule_type": "STATIC", "schedule_name": "random_12", "is_biased_choice":true,"side_choice": "LEFT", "trial_number":46,"observed_reward":1,"unobserved_reward":0},{"RT":3097,"time": "2018-08-15 01:46:50pm", "schedule_type": "STATIC", "schedule_name": "random_12", "is_biased_choice":false,"side_choice": "RIGHT", "trial_number":47,"observed_reward":0,"unobserved_reward":0},{"RT":3023,"time": "2018-08-15 01:46:53pm", "schedule_type": "STATIC", "schedule_name": "random_12", "is_biased_choice":true,"side_choice": "LEFT", "trial_number":48,"observed_reward":0,"unobserved_reward":0},{"RT":3001,"time": "2018-08-15 01:46:56pm", "schedule_type": "STATIC", "schedule_name": "random_12", "is_biased_choice":false,"side_choice": "RIGHT", "trial_number":49,"observed_reward":0,"unobserved_reward":0},{"RT":2704,"time": "2018-08-15 01:46:59pm", "schedule_type": "STATIC", "schedule_name": "random_12", "is_biased_choice":false,"side_choice": "RIGHT", "trial_number":50,"observed_reward":0,"unobserved_reward":0},{"RT":2720,"time": "2018-08-15 01:47:01pm", "schedule_type": "STATIC", "schedule_name": "random_12", "is_biased_choice":true,"side_choice": "LEFT", "trial_number":51,"observed_reward":0,"unobserved_reward":0},{"RT":2624,"time": "2018-08-15 01:47:04pm", "schedule_type": "STATIC", "schedule_name": "random_12", "is_biased_choice":false,"side_choice": "RIGHT", "trial_number":52,"observed_reward":1,"unobserved_reward":0},{"RT":3807,"time": "2018-08-15 01:47:08pm", "schedule_type": "STATIC", "schedule_name": "random_12", "is_biased_choice":true,"side_choice": "LEFT", "trial_number":53,"observed_reward":0,"unobserved_reward":0},{"RT":3024,"time": "2018-08-15 01:47:11pm", "schedule_type": "STATIC", "schedule_name": "random_12", "is_biased_choice":true,"side_choice": "LEFT", "trial_number":54,"observed_reward":0,"unobserved_reward":0},{"RT":2625,"time": "2018-08-15 01:47:14pm", "schedule_type": "STATIC", "schedule_name": "random_12", "is_biased_choice":true,"side_choice": "LEFT", "trial_number":55,"observed_reward":0,"unobserved_reward":0},{"RT":2647,"time": "2018-08-15 01:47:16pm", "schedule_type": "STATIC", "schedule_name": "random_12", "is_biased_choice":false,"side_choice": "RIGHT", "trial_number":56,"observed_reward":0,"unobserved_reward":0},{"RT":2504,"time": "2018-08-15 01:47:19pm", "schedule_type": "STATIC", "schedule_name": "random_12", "is_biased_choice":true,"side_choice": "LEFT", "trial_number":57,"observed_reward":0,"unobserved_reward":0},{"RT":2736,"time": "2018-08-15 01:47:21pm", "schedule_type": "STATIC", "schedule_name": "random_12", "is_biased_choice":false,"side_choice": "RIGHT", "trial_number":58,"observed_reward":0,"unobserved_reward":0},{"RT":2673,"time": "2018-08-15 01:47:24pm", "schedule_type": "STATIC", "schedule_name": "random_12", "is_biased_choice":true,"side_choice": "LEFT", "trial_number":59,"observed_reward":0,"unobserved_reward":1},{"RT":2576,"time": "2018-08-15 01:47:28pm", "schedule_type": "STATIC", "schedule_name": "random_12", "is_biased_choice":false,"side_choice": "RIGHT", "trial_number":60,"observed_reward":1,"unobserved_reward":0},{"RT":11703,"time": "2018-08-15 01:47:39pm", "schedule_type": "STATIC", "schedule_name": "random_12", "is_biased_choice":true,"side_choice": "LEFT", "trial_number":61,"observed_reward":0,"unobserved_reward":0},{"RT":3728,"time": "2018-08-15 01:47:42pm", "schedule_type": "STATIC", "schedule_name": "random_12", "is_biased_choice":false,"side_choice": "RIGHT", "trial_number":62,"observed_reward":0,"unobserved_reward":0},{"RT":2664,"time": "2018-08-15 01:47:45pm", "schedule_type": "STATIC", "schedule_name": "random_12", "is_biased_choice":true,"side_choice": "LEFT", "trial_number":63,"observed_reward":0,"unobserved_reward":1},{"RT":3263,"time": "2018-08-15 01:47:48pm", "schedule_type": "STATIC", "schedule_name": "random_12", "is_biased_choice":true,"side_choice": "LEFT", "trial_number":64,"observed_reward":1,"unobserved_reward":0},{"RT":4153,"time": "2018-08-15 01:47:52pm", "schedule_type": "STATIC", "schedule_name": "random_12", "is_biased_choice":true,"side_choice": "LEFT", "trial_number":65,"observed_reward":0,"unobserved_reward":0},{"RT":3095,"time": "2018-08-15 01:47:56pm", "schedule_type": "STATIC", "schedule_name": "random_12", "is_biased_choice":false,"side_choice": "RIGHT", "trial_number":66,"observed_reward":1,"unobserved_reward":1},{"RT":3249,"time": "2018-08-15 01:47:58pm", "schedule_type": "STATIC", "schedule_name": "random_12", "is_biased_choice":true,"side_choice": "LEFT", "trial_number":67,"observed_reward":0,"unobserved_reward":0},{"RT":4079,"time": "2018-08-15 01:48:03pm", "schedule_type": "STATIC", "schedule_name": "random_12", "is_biased_choice":false,"side_choice": "RIGHT", "trial_number":68,"observed_reward":0,"unobserved_reward":0},{"RT":2881,"time": "2018-08-15 01:48:05pm", "schedule_type": "STATIC", "schedule_name": "random_12", "is_biased_choice":false,"side_choice": "RIGHT", "trial_number":69,"observed_reward":0,"unobserved_reward":1},{"RT":2807,"time": "2018-08-15 01:48:08pm", "schedule_type": "STATIC", "schedule_name": "random_12", "is_biased_choice":true,"side_choice": "LEFT", "trial_number":70,"observed_reward":0,"unobserved_reward":0},{"RT":2960,"time": "2018-08-15 01:48:11pm", "schedule_type": "STATIC", "schedule_name": "random_12", "is_biased_choice":false,"side_choice": "RIGHT", "trial_number":71,"observed_reward":0,"unobserved_reward":0},{"RT":3033,"time": "2018-08-15 01:48:15pm", "schedule_type": "STATIC", "schedule_name": "random_12", "is_biased_choice":false,"side_choice": "RIGHT", "trial_number":72,"observed_reward":0,"unobserved_reward":1},{"RT":2687,"time": "2018-08-15 01:48:17pm", "schedule_type": "STATIC", "schedule_name": "random_12", "is_biased_choice":true,"side_choice": "LEFT", "trial_number":73,"observed_reward":1,"unobserved_reward":1},{"RT":5231,"time": "2018-08-15 01:48:22pm", "schedule_type": "STATIC", "schedule_name": "random_12", "is_biased_choice":true,"side_choice": "LEFT", "trial_number":74,"observed_reward":0,"unobserved_reward":1},{"RT":2976,"time": "2018-08-15 01:48:25pm", "schedule_type": "STATIC", "schedule_name": "random_12", "is_biased_choice":false,"side_choice": "RIGHT", "trial_number":75,"observed_reward":0,"unobserved_reward":0},{"RT":3145,"time": "2018-08-15 01:48:29pm", "schedule_type": "STATIC", "schedule_name": "random_12", "is_biased_choice":true,"side_choice": "LEFT", "trial_number":76,"observed_reward":0,"unobserved_reward":0},{"RT":2904,"time": "2018-08-15 01:48:31pm", "schedule_type": "STATIC", "schedule_name": "random_12", "is_biased_choice":false,"side_choice": "RIGHT", "trial_number":77,"observed_reward":1,"unobserved_reward":0},{"RT":3384,"time": "2018-08-15 01:48:35pm", "schedule_type": "STATIC", "schedule_name": "random_12", "is_biased_choice":true,"side_choice": "LEFT", "trial_number":78,"observed_reward":0,"unobserved_reward":0},{"RT":2599,"time": "2018-08-15 01:48:37pm", "schedule_type": "STATIC", "schedule_name": "random_12", "is_biased_choice":false,"side_choice": "RIGHT", "trial_number":79,"observed_reward":0,"unobserved_reward":0},{"RT":2793,"time": "2018-08-15 01:48:40pm", "schedule_type": "STATIC", "schedule_name": "random_12", "is_biased_choice":false,"side_choice": "RIGHT", "trial_number":80,"observed_reward":1,"unobserved_reward":0},{"RT":3985,"time": "2018-08-15 01:48:44pm", "schedule_type": "STATIC", "schedule_name": "random_12", "is_biased_choice":true,"side_choice": "LEFT", "trial_number":81,"observed_reward":0,"unobserved_reward":0},{"RT":2767,"time": "2018-08-15 01:48:47pm", "schedule_type": "STATIC", "schedule_name": "random_12", "is_biased_choice":true,"side_choice": "LEFT", "trial_number":82,"observed_reward":0,"unobserved_reward":0},{"RT":2713,"time": "2018-08-15 01:48:49pm", "schedule_type": "STATIC", "schedule_name": "random_12", "is_biased_choice":false,"side_choice": "RIGHT", "trial_number":83,"observed_reward":1,"unobserved_reward":0},{"RT":2616,"time": "2018-08-15 01:48:52pm", "schedule_type": "STATIC", "schedule_name": "random_12", "is_biased_choice":true,"side_choice": "LEFT", "trial_number":84,"observed_reward":1,"unobserved_reward":0},{"RT":2831,"time": "2018-08-15 01:48:55pm", "schedule_type": "STATIC", "schedule_name": "random_12", "is_biased_choice":false,"side_choice": "RIGHT", "trial_number":85,"observed_reward":0,"unobserved_reward":0},{"RT":2977,"time": "2018-08-15 01:48:58pm", "schedule_type": "STATIC", "schedule_name": "random_12", "is_biased_choice":true,"side_choice": "LEFT", "trial_number":86,"observed_reward":1,"unobserved_reward":0},{"RT":3336,"time": "2018-08-15 01:49:01pm", "schedule_type": "STATIC", "schedule_name": "random_12", "is_biased_choice":true,"side_choice": "LEFT", "trial_number":87,"observed_reward":0,"unobserved_reward":0},{"RT":2639,"time": "2018-08-15 01:49:04pm", "schedule_type": "STATIC", "schedule_name": "random_12", "is_biased_choice":false,"side_choice": "RIGHT", "trial_number":88,"observed_reward":0,"unobserved_reward":0},{"RT":2872,"time": "2018-08-15 01:49:07pm", "schedule_type": "STATIC", "schedule_name": "random_12", "is_biased_choice":false,"side_choice": "RIGHT", "trial_number":89,"observed_reward":0,"unobserved_reward":0},{"RT":2609,"time": "2018-08-15 01:49:09pm", "schedule_type": "STATIC", "schedule_name": "random_12", "is_biased_choice":true,"side_choice": "LEFT", "trial_number":90,"observed_reward":0,"unobserved_reward":0},{"RT":2615,"time": "2018-08-15 01:49:12pm", "schedule_type": "STATIC", "schedule_name": "random_12", "is_biased_choice":false,"side_choice": "RIGHT", "trial_number":91,"observed_reward":0,"unobserved_reward":1},{"RT":3040,"time": "2018-08-15 01:49:15pm", "schedule_type": "STATIC", "schedule_name": "random_12", "is_biased_choice":true,"side_choice": "LEFT", "trial_number":92,"observed_reward":1,"unobserved_reward":0},{"RT":3248,"time": "2018-08-15 01:49:18pm", "schedule_type": "STATIC", "schedule_name": "random_12", "is_biased_choice":false,"side_choice": "RIGHT", "trial_number":93,"observed_reward":0,"unobserved_reward":1},{"RT":3224,"time": "2018-08-15 01:49:21pm", "schedule_type": "STATIC", "schedule_name": "random_12", "is_biased_choice":true,"side_choice": "LEFT", "trial_number":94,"observed_reward":1,"unobserved_reward":0},{"RT":3119,"time": "2018-08-15 01:49:25pm", "schedule_type": "STATIC", "schedule_name": "random_12", "is_biased_choice":true,"side_choice": "LEFT", "trial_number":95,"observed_reward":1,"unobserved_reward":1},{"RT":3240,"time": "2018-08-15 01:49:29pm", "schedule_type": "STATIC", "schedule_name": "random_12", "is_biased_choice":false,"side_choice": "RIGHT", "trial_number":96,"observed_reward":0,"unobserved_reward":0},{"RT":3737,"time": "2018-08-15 01:49:32pm", "schedule_type": "STATIC", "schedule_name": "random_12", "is_biased_choice":true,"side_choice": "LEFT", "trial_number":97,"observed_reward":1,"unobserved_reward":0},{"RT":3984,"time": "2018-08-15 01:49:36pm", "schedule_type": "STATIC", "schedule_name": "random_12", "is_biased_choice":false,"side_choice": "RIGHT", "trial_number":98,"observed_reward":0,"unobserved_reward":1},{"RT":3296,"time": "2018-08-15 01:49:39pm", "schedule_type": "STATIC", "schedule_name": "random_12", "is_biased_choice":false,"side_choice": "RIGHT", "trial_number":99,"observed_reward":0,"unobserved_reward":0},