[{"RT":5346,"time": "2018-08-15 05:30:43pm", "schedule_type": "STATIC", "schedule_name": "random_12", "is_biased_choice":true,"side_choice": "LEFT", "trial_number":0,"observed_reward":1,"unobserved_reward":0},{"RT":4198,"time": "2018-08-15 05:30:47pm", "schedule_type": "STATIC", "schedule_name": "random_12", "is_biased_choice":true,"side_choice": "LEFT", "trial_number":1,"observed_reward":1,"unobserved_reward":1},{"RT":2913,"time": "2018-08-15 05:30:50pm", "schedule_type": "STATIC", "schedule_name": "random_12", "is_biased_choice":true,"side_choice": "LEFT", "trial_number":2,"observed_reward":0,"unobserved_reward":0},{"RT":2863,"time": "2018-08-15 05:30:52pm", "schedule_type": "STATIC", "schedule_name": "random_12", "is_biased_choice":true,"side_choice": "LEFT", "trial_number":3,"observed_reward":0,"unobserved_reward":0},{"RT":2788,"time": "2018-08-15 05:30:55pm", "schedule_type": "STATIC", "schedule_name": "random_12", "is_biased_choice":false,"side_choice": "RIGHT", "trial_number":4,"observed_reward":0,"unobserved_reward":0},{"RT":2804,"time": "2018-08-15 05:30:58pm", "schedule_type": "STATIC", "schedule_name": "random_12", "is_biased_choice":true,"side_choice": "LEFT", "trial_number":5,"observed_reward":0,"unobserved_reward":0},{"RT":2812,"time": "2018-08-15 05:31:01pm", "schedule_type": "STATIC", "schedule_name": "random_12", "is_biased_choice":true,"side_choice": "LEFT", "trial_number":6,"observed_reward":0,"unobserved_reward":1},{"RT":3225,"time": "2018-08-15 05:31:04pm", "schedule_type": "STATIC", "schedule_name": "random_12", "is_biased_choice":false,"side_choice": "RIGHT", "trial_number":7,"observed_reward":0,"unobserved_reward":0},{"RT":2944,"time": "2018-08-15 05:31:07pm", "schedule_type": "STATIC", "schedule_name": "random_12", "is_biased_choice":false,"side_choice": "RIGHT", "trial_number":8,"observed_reward":0,"unobserved_reward":0},{"RT":2804,"time": "2018-08-15 05:31:10pm", "schedule_type": "STATIC", "schedule_name": "random_12", "is_biased_choice":true,"side_choice": "LEFT", "trial_number":9,"observed_reward":1,"unobserved_reward":1},{"RT":2832,"time": "2018-08-15 05:31:13pm", "schedule_type": "STATIC", "schedule_name": "random_12", "is_biased_choice":true,"side_choice": "LEFT", "trial_number":10,"observed_reward":0,"unobserved_reward":0},{"RT":2884,"time": "2018-08-15 05:31:16pm", "schedule_type": "STATIC", "schedule_name": "random_12", "is_biased_choice":true,"side_choice": "LEFT", "trial_number":11,"observed_reward":0,"unobserved_reward":1},{"RT":2968,"time": "2018-08-15 05:31:18pm", "schedule_type": "STATIC", "schedule_name": "random_12", "is_biased_choice":true,"side_choice": "LEFT", "trial_number":12,"observed_reward":0,"unobserved_reward":0},{"RT":2655,"time": "2018-08-15 05:31:21pm", "schedule_type": "STATIC", "schedule_name": "random_12", "is_biased_choice":false,"side_choice": "RIGHT", "trial_number":13,"observed_reward":1,"unobserved_reward":0},{"RT":2853,"time": "2018-08-15 05:31:24pm", "schedule_type": "STATIC", "schedule_name": "random_12", "is_biased_choice":false,"side_choice": "RIGHT", "trial_number":14,"observed_reward":0,"unobserved_reward":0},{"RT":2709,"time": "2018-08-15 05:31:27pm", "schedule_type": "STATIC", "schedule_name": "random_12", "is_biased_choice":false,"side_choice": "RIGHT", "trial_number":15,"observed_reward":0,"unobserved_reward":1},{"RT":2551,"time": "2018-08-15 05:31:29pm", "schedule_type": "STATIC", "schedule_name": "random_12", "is_biased_choice":false,"side_choice": "RIGHT", "trial_number":16,"observed_reward":0,"unobserved_reward":0},{"RT":2579,"time": "2018-08-15 05:31:32pm", "schedule_type": "STATIC", "schedule_name": "random_12", "is_biased_choice":true,"side_choice": "LEFT", "trial_number":17,"observed_reward":0,"unobserved_reward":0},{"RT":2764,"time": "2018-08-15 05:31:35pm", "schedule_type": "STATIC", "schedule_name": "random_12", "is_biased_choice":false,"side_choice": "RIGHT", "trial_number":18,"observed_reward":0,"unobserved_reward":1},{"RT":2612,"time": "2018-08-15 05:31:37pm", "schedule_type": "STATIC", "schedule_name": "random_12", "is_biased_choice":false,"side_choice": "RIGHT", "trial_number":19,"observed_reward":0,"unobserved_reward":1},{"RT":2588,"time": "2018-08-15 05:31:40pm", "schedule_type": "STATIC", "schedule_name": "random_12", "is_biased_choice":false,"side_choice": "RIGHT", "trial_number":20,"observed_reward":0,"unobserved_reward":0},{"RT":2557,"time": "2018-08-15 05:31:42pm", "schedule_type": "STATIC", "schedule_name": "random_12", "is_biased_choice":false,"side_choice": "RIGHT", "trial_number":21,"observed_reward":0,"unobserved_reward":0},{"RT":4128,"time": "2018-08-15 05:31:47pm", "schedule_type": "STATIC", "schedule_name": "random_12", "is_biased_choice":true,"side_choice": "LEFT", "trial_number":22,"observed_reward":1,"unobserved_reward":0},{"RT":2796,"time": "2018-08-15 05:31:49pm", "schedule_type": "STATIC", "schedule_name": "random_12", "is_biased_choice":true,"side_choice": "LEFT", "trial_number":23,"observed_reward":0,"unobserved_reward":1},{"RT":3407,"time": "2018-08-15 05:31:53pm", "schedule_type": "STATIC", "schedule_name": "random_12", "is_biased_choice":true,"side_choice": "LEFT", "trial_number":24,"observed_reward":0,"unobserved_reward":0},{"RT":10253,"time": "2018-08-15 05:32:03pm", "schedule_type": "STATIC", "schedule_name": "random_12", "is_biased_choice":true,"side_choice": "LEFT", "trial_number":25,"observed_reward":0,"unobserved_reward":1},{"RT":5252,"time": "2018-08-15 05:32:08pm", "schedule_type": "STATIC", "schedule_name": "random_12", "is_biased_choice":true,"side_choice": "LEFT", "trial_number":26,"observed_reward":0,"unobserved_reward":1},{"RT":3320,"time": "2018-08-15 05:32:12pm", "schedule_type": "STATIC", "schedule_name": "random_12", "is_biased_choice":true,"side_choice": "LEFT", "trial_number":27,"observed_reward":1,"unobserved_reward":0},{"RT":3648,"time": "2018-08-15 05:32:15pm", "schedule_type": "STATIC", "schedule_name": "random_12", "is_biased_choice":true,"side_choice": "LEFT", "trial_number":28,"observed_reward":0,"unobserved_reward":1},{"RT":4960,"time": "2018-08-15 05:32:20pm", "schedule_type": "STATIC", "schedule_name": "random_12", "is_biased_choice":true,"side_choice": "LEFT", "trial_number":29,"observed_reward":0,"unobserved_reward":0},{"RT":3348,"time": "2018-08-15 05:32:23pm", "schedule_type": "STATIC", "schedule_name": "random_12", "is_biased_choice":true,"side_choice": "LEFT", "trial_number":30,"observed_reward":0,"unobserved_reward":1},{"RT":2928,"time": "2018-08-15 05:32:26pm", "schedule_type": "STATIC", "schedule_name": "random_12", "is_biased_choice":true,"side_choice": "LEFT", "trial_number":31,"observed_reward":0,"unobserved_reward":0},{"RT":2635,"time": "2018-08-15 05:32:29pm", "schedule_type": "STATIC", "schedule_name": "random_12", "is_biased_choice":true,"side_choice": "LEFT", "trial_number":32,"observed_reward":0,"unobserved_reward":1},{"RT":2689,"time": "2018-08-15 05:32:32pm", "schedule_type": "STATIC", "schedule_name": "random_12", "is_biased_choice":true,"side_choice": "LEFT", "trial_number":33,"observed_reward":1,"unobserved_reward":0},{"RT":2868,"time": "2018-08-15 05:32:35pm", "schedule_type": "STATIC", "schedule_name": "random_12", "is_biased_choice":true,"side_choice": "LEFT", "trial_number":34,"observed_reward":0,"unobserved_reward":0},{"RT":3352,"time": "2018-08-15 05:32:38pm", "schedule_type": "STATIC", "schedule_name": "random_12", "is_biased_choice":true,"side_choice": "LEFT", "trial_number":35,"observed_reward":0,"unobserved_reward":0},{"RT":2816,"time": "2018-08-15 05:32:41pm", "schedule_type": "STATIC", "schedule_name": "random_12", "is_biased_choice":true,"side_choice": "LEFT", "trial_number":36,"observed_reward":0,"unobserved_reward":0},{"RT":2603,"time": "2018-08-15 05:32:43pm", "schedule_type": "STATIC", "schedule_name": "random_12", "is_biased_choice":true,"side_choice": "LEFT", "trial_number":37,"observed_reward":0,"unobserved_reward":0},{"RT":37845,"time": "2018-08-15 05:33:21pm", "schedule_type": "STATIC", "schedule_name": "random_12", "is_biased_choice":true,"side_choice": "LEFT", "trial_number":38,"observed_reward":0,"unobserved_reward":0},{"RT":4108,"time": "2018-08-15 05:33:25pm", "schedule_type": "STATIC", "schedule_name": "random_12", "is_biased_choice":true,"side_choice": "LEFT", "trial_number":39,"observed_reward":0,"unobserved_reward":0},{"RT":2781,"time": "2018-08-15 05:33:28pm", "schedule_type": "STATIC", "schedule_name": "random_12", "is_biased_choice":true,"side_choice": "LEFT", "trial_number":40,"observed_reward":0,"unobserved_reward":0},{"RT":2555,"time": "2018-08-15 05:33:31pm", "schedule_type": "STATIC", "schedule_name": "random_12", "is_biased_choice":false,"side_choice": "RIGHT", "trial_number":41,"observed_reward":1,"unobserved_reward":0},{"RT":2825,"time": "2018-08-15 05:33:33pm", "schedule_type": "STATIC", "schedule_name": "random_12", "is_biased_choice":false,"side_choice": "RIGHT", "trial_number":42,"observed_reward":0,"unobserved_reward":0},{"RT":2476,"time": "2018-08-15 05:33:36pm", "schedule_type": "STATIC", "schedule_name": "random_12", "is_biased_choice":false,"side_choice": "RIGHT", "trial_number":43,"observed_reward":0,"unobserved_reward":0},{"RT":2439,"time": "2018-08-15 05:33:38pm", "schedule_type": "STATIC", "schedule_name": "random_12", "is_biased_choice":true,"side_choice": "LEFT", "trial_number":44,"observed_reward":0,"unobserved_reward":1},{"RT":2627,"time": "2018-08-15 05:33:41pm", "schedule_type": "STATIC", "schedule_name": "random_12", "is_biased_choice":false,"side_choice": "RIGHT", "trial_number":45,"observed_reward":1,"unobserved_reward":1},{"RT":2750,"time": "2018-08-15 05:33:44pm", "schedule_type": "STATIC", "schedule_name": "random_12", "is_biased_choice":true,"side_choice": "LEFT", "trial_number":46,"observed_reward":1,"unobserved_reward":0},{"RT":2828,"time": "2018-08-15 05:33:47pm", "schedule_type": "STATIC", "schedule_name": "random_12", "is_biased_choice":false,"side_choice": "RIGHT", "trial_number":47,"observed_reward":0,"unobserved_reward":0},{"RT":4334,"time": "2018-08-15 05:33:51pm", "schedule_type": "STATIC", "schedule_name": "random_12", "is_biased_choice":true,"side_choice": "LEFT", "trial_number":48,"observed_reward":0,"unobserved_reward":0},{"RT":2718,"time": "2018-08-15 05:33:54pm", "schedule_type": "STATIC", "schedule_name": "random_12", "is_biased_choice":false,"side_choice": "RIGHT", "trial_number":49,"observed_reward":0,"unobserved_reward":0},{"RT":2516,"time": "2018-08-15 05:33:56pm", "schedule_type": "STATIC", "schedule_name": "random_12", "is_biased_choice":true,"side_choice": "LEFT", "trial_number":50,"observed_reward":0,"unobserved_reward":0},{"RT":2579,"time": "2018-08-15 05:33:59pm", "schedule_type": "STATIC", "schedule_name": "random_12", "is_biased_choice":true,"side_choice": "LEFT", "trial_number":51,"observed_reward":0,"unobserved_reward":0},{"RT":16838,"time": "2018-08-15 05:34:16pm", "schedule_type": "STATIC", "schedule_name": "random_12", "is_biased_choice":true,"side_choice": "LEFT", "trial_number":52,"observed_reward":0,"unobserved_reward":1},{"RT":3326,"time": "2018-08-15 05:34:19pm", "schedule_type": "STATIC", "schedule_name": "random_12", "is_biased_choice":true,"side_choice": "LEFT", "trial_number":53,"observed_reward":0,"unobserved_reward":0},{"RT":2592,"time": "2018-08-15 05:34:21pm", "schedule_type": "STATIC", "schedule_name": "random_12", "is_biased_choice":true,"side_choice": "LEFT", "trial_number":54,"observed_reward":0,"unobserved_reward":0},{"RT":2488,"time": "2018-08-15 05:34:24pm", "schedule_type": "STATIC", "schedule_name": "random_12", "is_biased_choice":true,"side_choice": "LEFT", "trial_number":55,"observed_reward":0,"unobserved_reward":0},{"RT":2618,"time": "2018-08-15 05:34:27pm", "schedule_type": "STATIC", "schedule_name": "random_12", "is_biased_choice":false,"side_choice": "RIGHT", "trial_number":56,"observed_reward":0,"unobserved_reward":0},{"RT":2667,"time": "2018-08-15 05:34:29pm", "schedule_type": "STATIC", "schedule_name": "random_12", "is_biased_choice":false,"side_choice": "RIGHT", "trial_number":57,"observed_reward":0,"unobserved_reward":0},{"RT":2671,"time": "2018-08-15 05:34:32pm", "schedule_type": "STATIC", "schedule_name": "random_12", "is_biased_choice":false,"side_choice": "RIGHT", "trial_number":58,"observed_reward":0,"unobserved_reward":0},{"RT":3004,"time": "2018-08-15 05:34:35pm", "schedule_type": "STATIC", "schedule_name": "random_12", "is_biased_choice":true,"side_choice": "LEFT", "trial_number":59,"observed_reward":0,"unobserved_reward":1},{"RT":3100,"time": "2018-08-15 05:34:38pm", "schedule_type": "STATIC", "schedule_name": "random_12", "is_biased_choice":true,"side_choice": "LEFT", "trial_number":60,"observed_reward":0,"unobserved_reward":1},{"RT":2552,"time": "2018-08-15 05:34:41pm", "schedule_type": "STATIC", "schedule_name": "random_12", "is_biased_choice":true,"side_choice": "LEFT", "trial_number":61,"observed_reward":0,"unobserved_reward":0},{"RT":2536,"time": "2018-08-15 05:34:43pm", "schedule_type": "STATIC", "schedule_name": "random_12", "is_biased_choice":true,"side_choice": "LEFT", "trial_number":62,"observed_reward":0,"unobserved_reward":0},{"RT":3152,"time": "2018-08-15 05:34:46pm", "schedule_type": "STATIC", "schedule_name": "random_12", "is_biased_choice":false,"side_choice": "RIGHT", "trial_number":63,"observed_reward":1,"unobserved_reward":0},{"RT":2528,"time": "2018-08-15 05:34:49pm", "schedule_type": "STATIC", "schedule_name": "random_12", "is_biased_choice":false,"side_choice": "RIGHT", "trial_number":64,"observed_reward":0,"unobserved_reward":1},{"RT":2556,"time": "2018-08-15 05:34:51pm", "schedule_type": "STATIC", "schedule_name": "random_12", "is_biased_choice":false,"side_choice": "RIGHT", "trial_number":65,"observed_reward":0,"unobserved_reward":0},{"RT":2503,"time": "2018-08-15 05:34:54pm", "schedule_type": "STATIC", "schedule_name": "random_12", "is_biased_choice":true,"side_choice": "LEFT", "trial_number":66,"observed_reward":1,"unobserved_reward":1},{"RT":2918,"time": "2018-08-15 05:34:57pm", "schedule_type": "STATIC", "schedule_name": "random_12", "is_biased_choice":false,"side_choice": "RIGHT", "trial_number":67,"observed_reward":0,"unobserved_reward":0},{"RT":2747,"time": "2018-08-15 05:35:00pm", "schedule_type": "STATIC", "schedule_name": "random_12", "is_biased_choice":true,"side_choice": "LEFT", "trial_number":68,"observed_reward":0,"unobserved_reward":0},{"RT":2884,"time": "2018-08-15 05:35:02pm", "schedule_type": "STATIC", "schedule_name": "random_12", "is_biased_choice":true,"side_choice": "LEFT", "trial_number":69,"observed_reward":1,"unobserved_reward":0},{"RT":2604,"time": "2018-08-15 05:35:05pm", "schedule_type": "STATIC", "schedule_name": "random_12", "is_biased_choice":true,"side_choice": "LEFT", "trial_number":70,"observed_reward":0,"unobserved_reward":0},{"RT":2553,"time": "2018-08-15 05:35:08pm", "schedule_type": "STATIC", "schedule_name": "random_12", "is_biased_choice":true,"side_choice": "LEFT", "trial_number":71,"observed_reward":0,"unobserved_reward":0},{"RT":2571,"time": "2018-08-15 05:35:10pm", "schedule_type": "STATIC", "schedule_name": "random_12", "is_biased_choice":true,"side_choice": "LEFT", "trial_number":72,"observed_reward":1,"unobserved_reward":0},{"RT":2653,"time": "2018-08-15 05:35:13pm", "schedule_type": "STATIC", "schedule_name": "random_12", "is_biased_choice":true,"side_choice": "LEFT", "trial_number":73,"observed_reward":1,"unobserved_reward":1},{"RT":2607,"time": "2018-08-15 05:35:15pm", "schedule_type": "STATIC", "schedule_name": "random_12", "is_biased_choice":true,"side_choice": "LEFT", "trial_number":74,"observed_reward":0,"unobserved_reward":1},{"RT":2584,"time": "2018-08-15 05:35:18pm", "schedule_type": "STATIC", "schedule_name": "random_12", "is_biased_choice":false,"side_choice": "RIGHT", "trial_number":75,"observed_reward":0,"unobserved_reward":0},{"RT":2472,"time": "2018-08-15 05:35:20pm", "schedule_type": "STATIC", "schedule_name": "random_12", "is_biased_choice":false,"side_choice": "RIGHT", "trial_number":76,"observed_reward":0,"unobserved_reward":0},{"RT":2520,"time": "2018-08-15 05:35:23pm", "schedule_type": "STATIC", "schedule_name": "random_12", "is_biased_choice":false,"side_choice": "RIGHT", "trial_number":77,"observed_reward":1,"unobserved_reward":0},{"RT":2832,"time": "2018-08-15 05:35:26pm", "schedule_type": "STATIC", "schedule_name": "random_12", "is_biased_choice":false,"side_choice": "RIGHT", "trial_number":78,"observed_reward":0,"unobserved_reward":0},{"RT":2544,"time": "2018-08-15 05:35:28pm", "schedule_type": "STATIC", "schedule_name": "random_12", "is_biased_choice":true,"side_choice": "LEFT", "trial_number":79,"observed_reward":0,"unobserved_reward":0},{"RT":2481,"time": "2018-08-15 05:35:31pm", "schedule_type": "STATIC", "schedule_name": "random_12", "is_biased_choice":false,"side_choice": "RIGHT", "trial_number":80,"observed_reward":1,"unobserved_reward":0},{"RT":2696,"time": "2018-08-15 05:35:34pm", "schedule_type": "STATIC", "schedule_name": "random_12", "is_biased_choice":false,"side_choice": "RIGHT", "trial_number":81,"observed_reward":0,"unobserved_reward":0},{"RT":3299,"time": "2018-08-15 05:35:37pm", "schedule_type": "STATIC", "schedule_name": "random_12", "is_biased_choice":false,"side_choice": "RIGHT", "trial_number":82,"observed_reward":0,"unobserved_reward":0},{"RT":2789,"time": "2018-08-15 05:35:40pm", "schedule_type": "STATIC", "schedule_name": "random_12", "is_biased_choice":true,"side_choice": "LEFT", "trial_number":83,"observed_reward":0,"unobserved_reward":1},{"RT":2436,"time": "2018-08-15 05:35:42pm", "schedule_type": "STATIC", "schedule_name": "random_12", "is_biased_choice":true,"side_choice": "LEFT", "trial_number":84,"observed_reward":1,"unobserved_reward":0},{"RT":2812,"time": "2018-08-15 05:35:45pm", "schedule_type": "STATIC", "schedule_name": "random_12", "is_biased_choice":true,"side_choice": "LEFT", "trial_number":85,"observed_reward":0,"unobserved_reward":0},{"RT":2568,"time": "2018-08-15 05:35:47pm", "schedule_type": "STATIC", "schedule_name": "random_12", "is_biased_choice":true,"side_choice": "LEFT", "trial_number":86,"observed_reward":1,"unobserved_reward":0},{"RT":2812,"time": "2018-08-15 05:35:50pm", "schedule_type": "STATIC", "schedule_name": "random_12", "is_biased_choice":true,"side_choice": "LEFT", "trial_number":87,"observed_reward":0,"unobserved_reward":0},{"RT":2600,"time": "2018-08-15 05:35:53pm", "schedule_type": "STATIC", "schedule_name": "random_12", "is_biased_choice":true,"side_choice": "LEFT", "trial_number":88,"observed_reward":0,"unobserved_reward":0},{"RT":2889,"time": "2018-08-15 05:35:56pm", "schedule_type": "STATIC", "schedule_name": "random_12", "is_biased_choice":true,"side_choice": "LEFT", "trial_number":89,"observed_reward":0,"unobserved_reward":0},{"RT":2443,"time": "2018-08-15 05:35:58pm", "schedule_type": "STATIC", "schedule_name": "random_12", "is_biased_choice":false,"side_choice": "RIGHT", "trial_number":90,"observed_reward":0,"unobserved_reward":0},{"RT":2716,"time": "2018-08-15 05:36:01pm", "schedule_type": "STATIC", "schedule_name": "random_12", "is_biased_choice":false,"side_choice": "RIGHT", "trial_number":91,"observed_reward":0,"unobserved_reward":1},{"RT":2468,"time": "2018-08-15 05:36:03pm", "schedule_type": "STATIC", "schedule_name": "random_12", "is_biased_choice":false,"side_choice": "RIGHT", "trial_number":92,"observed_reward":0,"unobserved_reward":1},{"RT":2508,"time": "2018-08-15 05:36:06pm", "schedule_type": "STATIC", "schedule_name": "random_12", "is_biased_choice":false,"side_choice": "RIGHT", "trial_number":93,"observed_reward":0,"unobserved_reward":1},{"RT":2628,"time": "2018-08-15 05:36:08pm", "schedule_type": "STATIC", "schedule_name": "random_12", "is_biased_choice":true,"side_choice": "LEFT", "trial_number":94,"observed_reward":1,"unobserved_reward":0},{"RT":2536,"time": "2018-08-15 05:36:11pm", "schedule_type": "STATIC", "schedule_name": "random_12", "is_biased_choice":true,"side_choice": "LEFT", "trial_number":95,"observed_reward":1,"unobserved_reward":1},{"RT":2528,"time": "2018-08-15 05:36:14pm", "schedule_type": "STATIC", "schedule_name": "random_12", "is_biased_choice":true,"side_choice": "LEFT", "trial_number":96,"observed_reward":0,"unobserved_reward":0},{"RT":2640,"time": "2018-08-15 05:36:16pm", "schedule_type": "STATIC", "schedule_name": "random_12", "is_biased_choice":true,"side_choice": "LEFT", "trial_number":97,"observed_reward":1,"unobserved_reward":0},{"RT":2559,"time": "2018-08-15 05:36:19pm", "schedule_type": "STATIC", "schedule_name": "random_12", "is_biased_choice":true,"side_choice": "LEFT", "trial_number":98,"observed_reward":1,"unobserved_reward":0},{"RT":2485,"time": "2018-08-15 05:36:21pm", "schedule_type": "STATIC", "schedule_name": "random_12", "is_biased_choice":true,"side_choice": "LEFT", "trial_number":99,"observed_reward":0,"unobserved_reward":0},