[{"RT":1292,"time": "2018-08-15 03:35:13pm", "schedule_type": "STATIC", "schedule_name": "random_12", "is_biased_choice":false,"side_choice": "RIGHT", "trial_number":0,"observed_reward":0,"unobserved_reward":1},{"RT":2929,"time": "2018-08-15 03:35:16pm", "schedule_type": "STATIC", "schedule_name": "random_12", "is_biased_choice":false,"side_choice": "RIGHT", "trial_number":1,"observed_reward":1,"unobserved_reward":1},{"RT":2504,"time": "2018-08-15 03:35:19pm", "schedule_type": "STATIC", "schedule_name": "random_12", "is_biased_choice":false,"side_choice": "RIGHT", "trial_number":2,"observed_reward":0,"unobserved_reward":0},{"RT":2314,"time": "2018-08-15 03:35:21pm", "schedule_type": "STATIC", "schedule_name": "random_12", "is_biased_choice":false,"side_choice": "RIGHT", "trial_number":3,"observed_reward":0,"unobserved_reward":0},{"RT":2281,"time": "2018-08-15 03:35:23pm", "schedule_type": "STATIC", "schedule_name": "random_12", "is_biased_choice":false,"side_choice": "RIGHT", "trial_number":4,"observed_reward":0,"unobserved_reward":0},{"RT":3217,"time": "2018-08-15 03:35:26pm", "schedule_type": "STATIC", "schedule_name": "random_12", "is_biased_choice":true,"side_choice": "LEFT", "trial_number":5,"observed_reward":0,"unobserved_reward":0},{"RT":2275,"time": "2018-08-15 03:35:29pm", "schedule_type": "STATIC", "schedule_name": "random_12", "is_biased_choice":true,"side_choice": "LEFT", "trial_number":6,"observed_reward":0,"unobserved_reward":1},{"RT":2520,"time": "2018-08-15 03:35:31pm", "schedule_type": "STATIC", "schedule_name": "random_12", "is_biased_choice":true,"side_choice": "LEFT", "trial_number":7,"observed_reward":0,"unobserved_reward":0},{"RT":2383,"time": "2018-08-15 03:35:34pm", "schedule_type": "STATIC", "schedule_name": "random_12", "is_biased_choice":false,"side_choice": "RIGHT", "trial_number":8,"observed_reward":0,"unobserved_reward":0},{"RT":2262,"time": "2018-08-15 03:35:36pm", "schedule_type": "STATIC", "schedule_name": "random_12", "is_biased_choice":true,"side_choice": "LEFT", "trial_number":9,"observed_reward":1,"unobserved_reward":1},{"RT":2356,"time": "2018-08-15 03:35:38pm", "schedule_type": "STATIC", "schedule_name": "random_12", "is_biased_choice":true,"side_choice": "LEFT", "trial_number":10,"observed_reward":0,"unobserved_reward":0},{"RT":2201,"time": "2018-08-15 03:35:40pm", "schedule_type": "STATIC", "schedule_name": "random_12", "is_biased_choice":false,"side_choice": "RIGHT", "trial_number":11,"observed_reward":1,"unobserved_reward":0},{"RT":2366,"time": "2018-08-15 03:35:43pm", "schedule_type": "STATIC", "schedule_name": "random_12", "is_biased_choice":true,"side_choice": "LEFT", "trial_number":12,"observed_reward":0,"unobserved_reward":0},{"RT":2334,"time": "2018-08-15 03:35:45pm", "schedule_type": "STATIC", "schedule_name": "random_12", "is_biased_choice":true,"side_choice": "LEFT", "trial_number":13,"observed_reward":0,"unobserved_reward":1},{"RT":2212,"time": "2018-08-15 03:35:47pm", "schedule_type": "STATIC", "schedule_name": "random_12", "is_biased_choice":true,"side_choice": "LEFT", "trial_number":14,"observed_reward":0,"unobserved_reward":0},{"RT":2230,"time": "2018-08-15 03:35:50pm", "schedule_type": "STATIC", "schedule_name": "random_12", "is_biased_choice":true,"side_choice": "LEFT", "trial_number":15,"observed_reward":1,"unobserved_reward":0},{"RT":2363,"time": "2018-08-15 03:35:52pm", "schedule_type": "STATIC", "schedule_name": "random_12", "is_biased_choice":false,"side_choice": "RIGHT", "trial_number":16,"observed_reward":0,"unobserved_reward":0},{"RT":2270,"time": "2018-08-15 03:35:54pm", "schedule_type": "STATIC", "schedule_name": "random_12", "is_biased_choice":true,"side_choice": "LEFT", "trial_number":17,"observed_reward":0,"unobserved_reward":0},{"RT":2278,"time": "2018-08-15 03:35:56pm", "schedule_type": "STATIC", "schedule_name": "random_12", "is_biased_choice":true,"side_choice": "LEFT", "trial_number":18,"observed_reward":1,"unobserved_reward":0},{"RT":2889,"time": "2018-08-15 03:35:59pm", "schedule_type": "STATIC", "schedule_name": "random_12", "is_biased_choice":false,"side_choice": "RIGHT", "trial_number":19,"observed_reward":0,"unobserved_reward":1},{"RT":2288,"time": "2018-08-15 03:36:02pm", "schedule_type": "STATIC", "schedule_name": "random_12", "is_biased_choice":true,"side_choice": "LEFT", "trial_number":20,"observed_reward":0,"unobserved_reward":0},{"RT":2503,"time": "2018-08-15 03:36:04pm", "schedule_type": "STATIC", "schedule_name": "random_12", "is_biased_choice":false,"side_choice": "RIGHT", "trial_number":21,"observed_reward":0,"unobserved_reward":0},{"RT":4051,"time": "2018-08-15 03:36:09pm", "schedule_type": "STATIC", "schedule_name": "random_12", "is_biased_choice":true,"side_choice": "LEFT", "trial_number":22,"observed_reward":1,"unobserved_reward":0},{"RT":3626,"time": "2018-08-15 03:36:12pm", "schedule_type": "STATIC", "schedule_name": "random_12", "is_biased_choice":true,"side_choice": "LEFT", "trial_number":23,"observed_reward":0,"unobserved_reward":1},{"RT":2582,"time": "2018-08-15 03:36:14pm", "schedule_type": "STATIC", "schedule_name": "random_12", "is_biased_choice":false,"side_choice": "RIGHT", "trial_number":24,"observed_reward":0,"unobserved_reward":0},{"RT":2366,"time": "2018-08-15 03:36:17pm", "schedule_type": "STATIC", "schedule_name": "random_12", "is_biased_choice":false,"side_choice": "RIGHT", "trial_number":25,"observed_reward":1,"unobserved_reward":0},{"RT":2293,"time": "2018-08-15 03:36:19pm", "schedule_type": "STATIC", "schedule_name": "random_12", "is_biased_choice":false,"side_choice": "RIGHT", "trial_number":26,"observed_reward":1,"unobserved_reward":0},{"RT":2295,"time": "2018-08-15 03:36:21pm", "schedule_type": "STATIC", "schedule_name": "random_12", "is_biased_choice":false,"side_choice": "RIGHT", "trial_number":27,"observed_reward":0,"unobserved_reward":1},{"RT":2700,"time": "2018-08-15 03:36:24pm", "schedule_type": "STATIC", "schedule_name": "random_12", "is_biased_choice":false,"side_choice": "RIGHT", "trial_number":28,"observed_reward":1,"unobserved_reward":0},{"RT":2200,"time": "2018-08-15 03:36:26pm", "schedule_type": "STATIC", "schedule_name": "random_12", "is_biased_choice":false,"side_choice": "RIGHT", "trial_number":29,"observed_reward":0,"unobserved_reward":0},{"RT":2135,"time": "2018-08-15 03:36:28pm", "schedule_type": "STATIC", "schedule_name": "random_12", "is_biased_choice":false,"side_choice": "RIGHT", "trial_number":30,"observed_reward":1,"unobserved_reward":0},{"RT":2211,"time": "2018-08-15 03:36:31pm", "schedule_type": "STATIC", "schedule_name": "random_12", "is_biased_choice":false,"side_choice": "RIGHT", "trial_number":31,"observed_reward":0,"unobserved_reward":0},{"RT":2149,"time": "2018-08-15 03:36:33pm", "schedule_type": "STATIC", "schedule_name": "random_12", "is_biased_choice":false,"side_choice": "RIGHT", "trial_number":32,"observed_reward":1,"unobserved_reward":0},{"RT":2952,"time": "2018-08-15 03:36:36pm", "schedule_type": "STATIC", "schedule_name": "random_12", "is_biased_choice":true,"side_choice": "LEFT", "trial_number":33,"observed_reward":1,"unobserved_reward":0},{"RT":2249,"time": "2018-08-15 03:36:38pm", "schedule_type": "STATIC", "schedule_name": "random_12", "is_biased_choice":false,"side_choice": "RIGHT", "trial_number":34,"observed_reward":0,"unobserved_reward":0},{"RT":2537,"time": "2018-08-15 03:36:40pm", "schedule_type": "STATIC", "schedule_name": "random_12", "is_biased_choice":false,"side_choice": "RIGHT", "trial_number":35,"observed_reward":0,"unobserved_reward":0},{"RT":2168,"time": "2018-08-15 03:36:43pm", "schedule_type": "STATIC", "schedule_name": "random_12", "is_biased_choice":false,"side_choice": "RIGHT", "trial_number":36,"observed_reward":0,"unobserved_reward":0},{"RT":2207,"time": "2018-08-15 03:36:45pm", "schedule_type": "STATIC", "schedule_name": "random_12", "is_biased_choice":true,"side_choice": "LEFT", "trial_number":37,"observed_reward":0,"unobserved_reward":0},{"RT":2143,"time": "2018-08-15 03:36:47pm", "schedule_type": "STATIC", "schedule_name": "random_12", "is_biased_choice":false,"side_choice": "RIGHT", "trial_number":38,"observed_reward":0,"unobserved_reward":0},{"RT":2202,"time": "2018-08-15 03:36:49pm", "schedule_type": "STATIC", "schedule_name": "random_12", "is_biased_choice":false,"side_choice": "RIGHT", "trial_number":39,"observed_reward":0,"unobserved_reward":0},{"RT":2364,"time": "2018-08-15 03:36:52pm", "schedule_type": "STATIC", "schedule_name": "random_12", "is_biased_choice":false,"side_choice": "RIGHT", "trial_number":40,"observed_reward":0,"unobserved_reward":0},{"RT":2131,"time": "2018-08-15 03:36:54pm", "schedule_type": "STATIC", "schedule_name": "random_12", "is_biased_choice":true,"side_choice": "LEFT", "trial_number":41,"observed_reward":0,"unobserved_reward":1},{"RT":2256,"time": "2018-08-15 03:36:56pm", "schedule_type": "STATIC", "schedule_name": "random_12", "is_biased_choice":true,"side_choice": "LEFT", "trial_number":42,"observed_reward":0,"unobserved_reward":0},{"RT":2577,"time": "2018-08-15 03:36:59pm", "schedule_type": "STATIC", "schedule_name": "random_12", "is_biased_choice":true,"side_choice": "LEFT", "trial_number":43,"observed_reward":0,"unobserved_reward":0},{"RT":2334,"time": "2018-08-15 03:37:01pm", "schedule_type": "STATIC", "schedule_name": "random_12", "is_biased_choice":false,"side_choice": "RIGHT", "trial_number":44,"observed_reward":1,"unobserved_reward":0},{"RT":2343,"time": "2018-08-15 03:37:03pm", "schedule_type": "STATIC", "schedule_name": "random_12", "is_biased_choice":false,"side_choice": "RIGHT", "trial_number":45,"observed_reward":1,"unobserved_reward":1},{"RT":2191,"time": "2018-08-15 03:37:05pm", "schedule_type": "STATIC", "schedule_name": "random_12", "is_biased_choice":false,"side_choice": "RIGHT", "trial_number":46,"observed_reward":0,"unobserved_reward":1},{"RT":2338,"time": "2018-08-15 03:37:08pm", "schedule_type": "STATIC", "schedule_name": "random_12", "is_biased_choice":true,"side_choice": "LEFT", "trial_number":47,"observed_reward":0,"unobserved_reward":0},{"RT":2320,"time": "2018-08-15 03:37:10pm", "schedule_type": "STATIC", "schedule_name": "random_12", "is_biased_choice":true,"side_choice": "LEFT", "trial_number":48,"observed_reward":0,"unobserved_reward":0},{"RT":2776,"time": "2018-08-15 03:37:13pm", "schedule_type": "STATIC", "schedule_name": "random_12", "is_biased_choice":false,"side_choice": "RIGHT", "trial_number":49,"observed_reward":0,"unobserved_reward":0},{"RT":2232,"time": "2018-08-15 03:37:15pm", "schedule_type": "STATIC", "schedule_name": "random_12", "is_biased_choice":true,"side_choice": "LEFT", "trial_number":50,"observed_reward":0,"unobserved_reward":0},{"RT":2230,"time": "2018-08-15 03:37:17pm", "schedule_type": "STATIC", "schedule_name": "random_12", "is_biased_choice":false,"side_choice": "RIGHT", "trial_number":51,"observed_reward":0,"unobserved_reward":0},{"RT":2147,"time": "2018-08-15 03:37:21pm", "schedule_type": "STATIC", "schedule_name": "random_12", "is_biased_choice":false,"side_choice": "RIGHT", "trial_number":52,"observed_reward":1,"unobserved_reward":0},{"RT":2919,"time": "2018-08-15 03:37:22pm", "schedule_type": "STATIC", "schedule_name": "random_12", "is_biased_choice":false,"side_choice": "RIGHT", "trial_number":53,"observed_reward":0,"unobserved_reward":0},{"RT":2784,"time": "2018-08-15 03:37:25pm", "schedule_type": "STATIC", "schedule_name": "random_12", "is_biased_choice":false,"side_choice": "RIGHT", "trial_number":54,"observed_reward":0,"unobserved_reward":0},{"RT":2512,"time": "2018-08-15 03:37:28pm", "schedule_type": "STATIC", "schedule_name": "random_12", "is_biased_choice":true,"side_choice": "LEFT", "trial_number":55,"observed_reward":0,"unobserved_reward":0},{"RT":2593,"time": "2018-08-15 03:37:30pm", "schedule_type": "STATIC", "schedule_name": "random_12", "is_biased_choice":false,"side_choice": "RIGHT", "trial_number":56,"observed_reward":0,"unobserved_reward":0},{"RT":2495,"time": "2018-08-15 03:37:33pm", "schedule_type": "STATIC", "schedule_name": "random_12", "is_biased_choice":false,"side_choice": "RIGHT", "trial_number":57,"observed_reward":0,"unobserved_reward":0},{"RT":2263,"time": "2018-08-15 03:37:35pm", "schedule_type": "STATIC", "schedule_name": "random_12", "is_biased_choice":true,"side_choice": "LEFT", "trial_number":58,"observed_reward":0,"unobserved_reward":0},{"RT":4669,"time": "2018-08-15 03:37:40pm", "schedule_type": "STATIC", "schedule_name": "random_12", "is_biased_choice":true,"side_choice": "LEFT", "trial_number":59,"observed_reward":0,"unobserved_reward":1},{"RT":2763,"time": "2018-08-15 03:37:42pm", "schedule_type": "STATIC", "schedule_name": "random_12", "is_biased_choice":false,"side_choice": "RIGHT", "trial_number":60,"observed_reward":1,"unobserved_reward":0},{"RT":3009,"time": "2018-08-15 03:37:45pm", "schedule_type": "STATIC", "schedule_name": "random_12", "is_biased_choice":false,"side_choice": "RIGHT", "trial_number":61,"observed_reward":0,"unobserved_reward":0},{"RT":2201,"time": "2018-08-15 03:37:48pm", "schedule_type": "STATIC", "schedule_name": "random_12", "is_biased_choice":false,"side_choice": "RIGHT", "trial_number":62,"observed_reward":0,"unobserved_reward":0},{"RT":2761,"time": "2018-08-15 03:37:50pm", "schedule_type": "STATIC", "schedule_name": "random_12", "is_biased_choice":false,"side_choice": "RIGHT", "trial_number":63,"observed_reward":1,"unobserved_reward":0},{"RT":3254,"time": "2018-08-15 03:37:54pm", "schedule_type": "STATIC", "schedule_name": "random_12", "is_biased_choice":false,"side_choice": "RIGHT", "trial_number":64,"observed_reward":0,"unobserved_reward":1},{"RT":5480,"time": "2018-08-15 03:37:59pm", "schedule_type": "STATIC", "schedule_name": "random_12", "is_biased_choice":false,"side_choice": "RIGHT", "trial_number":65,"observed_reward":0,"unobserved_reward":0},{"RT":2991,"time": "2018-08-15 03:38:02pm", "schedule_type": "STATIC", "schedule_name": "random_12", "is_biased_choice":false,"side_choice": "RIGHT", "trial_number":66,"observed_reward":1,"unobserved_reward":1},{"RT":2401,"time": "2018-08-15 03:38:04pm", "schedule_type": "STATIC", "schedule_name": "random_12", "is_biased_choice":false,"side_choice": "RIGHT", "trial_number":67,"observed_reward":0,"unobserved_reward":0},{"RT":2368,"time": "2018-08-15 03:38:07pm", "schedule_type": "STATIC", "schedule_name": "random_12", "is_biased_choice":false,"side_choice": "RIGHT", "trial_number":68,"observed_reward":0,"unobserved_reward":0},{"RT":57921,"time": "2018-08-15 03:39:05pm", "schedule_type": "STATIC", "schedule_name": "random_12", "is_biased_choice":false,"side_choice": "RIGHT", "trial_number":69,"observed_reward":0,"unobserved_reward":1},{"RT":3463,"time": "2018-08-15 03:39:08pm", "schedule_type": "STATIC", "schedule_name": "random_12", "is_biased_choice":true,"side_choice": "LEFT", "trial_number":70,"observed_reward":0,"unobserved_reward":0},{"RT":6905,"time": "2018-08-15 03:39:15pm", "schedule_type": "STATIC", "schedule_name": "random_12", "is_biased_choice":false,"side_choice": "RIGHT", "trial_number":71,"observed_reward":0,"unobserved_reward":0},{"RT":5671,"time": "2018-08-15 03:39:21pm", "schedule_type": "STATIC", "schedule_name": "random_12", "is_biased_choice":true,"side_choice": "LEFT", "trial_number":72,"observed_reward":1,"unobserved_reward":0},{"RT":9313,"time": "2018-08-15 03:39:30pm", "schedule_type": "STATIC", "schedule_name": "random_12", "is_biased_choice":false,"side_choice": "RIGHT", "trial_number":73,"observed_reward":1,"unobserved_reward":1},{"RT":3192,"time": "2018-08-15 03:39:33pm", "schedule_type": "STATIC", "schedule_name": "random_12", "is_biased_choice":false,"side_choice": "RIGHT", "trial_number":74,"observed_reward":1,"unobserved_reward":0},{"RT":2291,"time": "2018-08-15 03:39:36pm", "schedule_type": "STATIC", "schedule_name": "random_12", "is_biased_choice":false,"side_choice": "RIGHT", "trial_number":75,"observed_reward":0,"unobserved_reward":0},{"RT":2954,"time": "2018-08-15 03:39:39pm", "schedule_type": "STATIC", "schedule_name": "random_12", "is_biased_choice":false,"side_choice": "RIGHT", "trial_number":76,"observed_reward":0,"unobserved_reward":0},{"RT":2278,"time": "2018-08-15 03:39:41pm", "schedule_type": "STATIC", "schedule_name": "random_12", "is_biased_choice":false,"side_choice": "RIGHT", "trial_number":77,"observed_reward":1,"unobserved_reward":0},{"RT":2394,"time": "2018-08-15 03:39:43pm", "schedule_type": "STATIC", "schedule_name": "random_12", "is_biased_choice":false,"side_choice": "RIGHT", "trial_number":78,"observed_reward":0,"unobserved_reward":0},{"RT":2267,"time": "2018-08-15 03:39:46pm", "schedule_type": "STATIC", "schedule_name": "random_12", "is_biased_choice":false,"side_choice": "RIGHT", "trial_number":79,"observed_reward":0,"unobserved_reward":0},{"RT":2154,"time": "2018-08-15 03:39:48pm", "schedule_type": "STATIC", "schedule_name": "random_12", "is_biased_choice":false,"side_choice": "RIGHT", "trial_number":80,"observed_reward":1,"unobserved_reward":0},{"RT":2246,"time": "2018-08-15 03:39:50pm", "schedule_type": "STATIC", "schedule_name": "random_12", "is_biased_choice":false,"side_choice": "RIGHT", "trial_number":81,"observed_reward":0,"unobserved_reward":0},{"RT":2183,"time": "2018-08-15 03:39:52pm", "schedule_type": "STATIC", "schedule_name": "random_12", "is_biased_choice":true,"side_choice": "LEFT", "trial_number":82,"observed_reward":0,"unobserved_reward":0},{"RT":2273,"time": "2018-08-15 03:39:54pm", "schedule_type": "STATIC", "schedule_name": "random_12", "is_biased_choice":true,"side_choice": "LEFT", "trial_number":83,"observed_reward":0,"unobserved_reward":1},{"RT":2232,"time": "2018-08-15 03:39:57pm", "schedule_type": "STATIC", "schedule_name": "random_12", "is_biased_choice":true,"side_choice": "LEFT", "trial_number":84,"observed_reward":1,"unobserved_reward":0},{"RT":2215,"time": "2018-08-15 03:39:59pm", "schedule_type": "STATIC", "schedule_name": "random_12", "is_biased_choice":false,"side_choice": "RIGHT", "trial_number":85,"observed_reward":0,"unobserved_reward":0},{"RT":2184,"time": "2018-08-15 03:40:01pm", "schedule_type": "STATIC", "schedule_name": "random_12", "is_biased_choice":false,"side_choice": "RIGHT", "trial_number":86,"observed_reward":0,"unobserved_reward":1},{"RT":2129,"time": "2018-08-15 03:40:03pm", "schedule_type": "STATIC", "schedule_name": "random_12", "is_biased_choice":false,"side_choice": "RIGHT", "trial_number":87,"observed_reward":0,"unobserved_reward":0},{"RT":21906,"time": "2018-08-15 03:40:25pm", "schedule_type": "STATIC", "schedule_name": "random_12", "is_biased_choice":false,"side_choice": "RIGHT", "trial_number":88,"observed_reward":0,"unobserved_reward":0},{"RT":5966,"time": "2018-08-15 03:40:31pm", "schedule_type": "STATIC", "schedule_name": "random_12", "is_biased_choice":true,"side_choice": "LEFT", "trial_number":89,"observed_reward":0,"unobserved_reward":0},{"RT":2431,"time": "2018-08-15 03:40:33pm", "schedule_type": "STATIC", "schedule_name": "random_12", "is_biased_choice":false,"side_choice": "RIGHT", "trial_number":90,"observed_reward":0,"unobserved_reward":0},{"RT":2306,"time": "2018-08-15 03:40:36pm", "schedule_type": "STATIC", "schedule_name": "random_12", "is_biased_choice":true,"side_choice": "LEFT", "trial_number":91,"observed_reward":1,"unobserved_reward":0},{"RT":3174,"time": "2018-08-15 03:40:39pm", "schedule_type": "STATIC", "schedule_name": "random_12", "is_biased_choice":true,"side_choice": "LEFT", "trial_number":92,"observed_reward":1,"unobserved_reward":0},{"RT":2657,"time": "2018-08-15 03:40:42pm", "schedule_type": "STATIC", "schedule_name": "random_12", "is_biased_choice":true,"side_choice": "LEFT", "trial_number":93,"observed_reward":1,"unobserved_reward":0},{"RT":2360,"time": "2018-08-15 03:40:44pm", "schedule_type": "STATIC", "schedule_name": "random_12", "is_biased_choice":true,"side_choice": "LEFT", "trial_number":94,"observed_reward":1,"unobserved_reward":0},{"RT":2192,"time": "2018-08-15 03:40:46pm", "schedule_type": "STATIC", "schedule_name": "random_12", "is_biased_choice":true,"side_choice": "LEFT", "trial_number":95,"observed_reward":1,"unobserved_reward":1},{"RT":2383,"time": "2018-08-15 03:40:49pm", "schedule_type": "STATIC", "schedule_name": "random_12", "is_biased_choice":true,"side_choice": "LEFT", "trial_number":96,"observed_reward":0,"unobserved_reward":0},{"RT":2145,"time": "2018-08-15 03:40:51pm", "schedule_type": "STATIC", "schedule_name": "random_12", "is_biased_choice":true,"side_choice": "LEFT", "trial_number":97,"observed_reward":1,"unobserved_reward":0},{"RT":2406,"time": "2018-08-15 03:40:53pm", "schedule_type": "STATIC", "schedule_name": "random_12", "is_biased_choice":true,"side_choice": "LEFT", "trial_number":98,"observed_reward":1,"unobserved_reward":0},{"RT":2178,"time": "2018-08-15 03:40:55pm", "schedule_type": "STATIC", "schedule_name": "random_12", "is_biased_choice":false,"side_choice": "RIGHT", "trial_number":99,"observed_reward":0,"unobserved_reward":0},