[{"RT":4014,"time": "2018-07-29 03:46:55pm", "schedule_type": "STATIC", "schedule_name": "random_16", "is_biased_choice":true,"side_choice": "LEFT", "trial_number":0,"observed_reward":0,"unobserved_reward":0},{"RT":5559,"time": "2018-07-29 03:47:01pm", "schedule_type": "STATIC", "schedule_name": "random_16", "is_biased_choice":false,"side_choice": "RIGHT", "trial_number":1,"observed_reward":0,"unobserved_reward":0},{"RT":2765,"time": "2018-07-29 03:47:04pm", "schedule_type": "STATIC", "schedule_name": "random_16", "is_biased_choice":true,"side_choice": "LEFT", "trial_number":2,"observed_reward":0,"unobserved_reward":0},{"RT":4450,"time": "2018-07-29 03:47:08pm", "schedule_type": "STATIC", "schedule_name": "random_16", "is_biased_choice":false,"side_choice": "RIGHT", "trial_number":3,"observed_reward":0,"unobserved_reward":0},{"RT":2899,"time": "2018-07-29 03:47:11pm", "schedule_type": "STATIC", "schedule_name": "random_16", "is_biased_choice":true,"side_choice": "LEFT", "trial_number":4,"observed_reward":0,"unobserved_reward":0},{"RT":5232,"time": "2018-07-29 03:47:16pm", "schedule_type": "STATIC", "schedule_name": "random_16", "is_biased_choice":true,"side_choice": "LEFT", "trial_number":5,"observed_reward":0,"unobserved_reward":0},{"RT":3452,"time": "2018-07-29 03:47:20pm", "schedule_type": "STATIC", "schedule_name": "random_16", "is_biased_choice":true,"side_choice": "LEFT", "trial_number":6,"observed_reward":0,"unobserved_reward":0},{"RT":2876,"time": "2018-07-29 03:47:23pm", "schedule_type": "STATIC", "schedule_name": "random_16", "is_biased_choice":true,"side_choice": "LEFT", "trial_number":7,"observed_reward":0,"unobserved_reward":0},{"RT":4799,"time": "2018-07-29 03:47:28pm", "schedule_type": "STATIC", "schedule_name": "random_16", "is_biased_choice":true,"side_choice": "LEFT", "trial_number":8,"observed_reward":0,"unobserved_reward":0},{"RT":2592,"time": "2018-07-29 03:47:30pm", "schedule_type": "STATIC", "schedule_name": "random_16", "is_biased_choice":false,"side_choice": "RIGHT", "trial_number":9,"observed_reward":1,"unobserved_reward":0},{"RT":3264,"time": "2018-07-29 03:47:33pm", "schedule_type": "STATIC", "schedule_name": "random_16", "is_biased_choice":false,"side_choice": "RIGHT", "trial_number":10,"observed_reward":0,"unobserved_reward":0},{"RT":2846,"time": "2018-07-29 03:47:36pm", "schedule_type": "STATIC", "schedule_name": "random_16", "is_biased_choice":true,"side_choice": "LEFT", "trial_number":11,"observed_reward":1,"unobserved_reward":0},{"RT":2718,"time": "2018-07-29 03:47:39pm", "schedule_type": "STATIC", "schedule_name": "random_16", "is_biased_choice":false,"side_choice": "RIGHT", "trial_number":12,"observed_reward":1,"unobserved_reward":0},{"RT":2768,"time": "2018-07-29 03:47:42pm", "schedule_type": "STATIC", "schedule_name": "random_16", "is_biased_choice":true,"side_choice": "LEFT", "trial_number":13,"observed_reward":0,"unobserved_reward":0},{"RT":2584,"time": "2018-07-29 03:47:44pm", "schedule_type": "STATIC", "schedule_name": "random_16", "is_biased_choice":false,"side_choice": "RIGHT", "trial_number":14,"observed_reward":0,"unobserved_reward":1},{"RT":2196,"time": "2018-07-29 03:47:46pm", "schedule_type": "STATIC", "schedule_name": "random_16", "is_biased_choice":true,"side_choice": "LEFT", "trial_number":15,"observed_reward":0,"unobserved_reward":0},{"RT":2649,"time": "2018-07-29 03:47:49pm", "schedule_type": "STATIC", "schedule_name": "random_16", "is_biased_choice":true,"side_choice": "LEFT", "trial_number":16,"observed_reward":0,"unobserved_reward":1},{"RT":2339,"time": "2018-07-29 03:47:51pm", "schedule_type": "STATIC", "schedule_name": "random_16", "is_biased_choice":false,"side_choice": "RIGHT", "trial_number":17,"observed_reward":0,"unobserved_reward":0},{"RT":3028,"time": "2018-07-29 03:47:54pm", "schedule_type": "STATIC", "schedule_name": "random_16", "is_biased_choice":true,"side_choice": "LEFT", "trial_number":18,"observed_reward":0,"unobserved_reward":0},{"RT":3016,"time": "2018-07-29 03:47:58pm", "schedule_type": "STATIC", "schedule_name": "random_16", "is_biased_choice":false,"side_choice": "RIGHT", "trial_number":19,"observed_reward":1,"unobserved_reward":0},{"RT":2602,"time": "2018-07-29 03:48:00pm", "schedule_type": "STATIC", "schedule_name": "random_16", "is_biased_choice":true,"side_choice": "LEFT", "trial_number":20,"observed_reward":0,"unobserved_reward":1},{"RT":3052,"time": "2018-07-29 03:48:03pm", "schedule_type": "STATIC", "schedule_name": "random_16", "is_biased_choice":false,"side_choice": "RIGHT", "trial_number":21,"observed_reward":1,"unobserved_reward":0},{"RT":2499,"time": "2018-07-29 03:48:06pm", "schedule_type": "STATIC", "schedule_name": "random_16", "is_biased_choice":false,"side_choice": "RIGHT", "trial_number":22,"observed_reward":0,"unobserved_reward":1},{"RT":2563,"time": "2018-07-29 03:48:08pm", "schedule_type": "STATIC", "schedule_name": "random_16", "is_biased_choice":true,"side_choice": "LEFT", "trial_number":23,"observed_reward":0,"unobserved_reward":0},{"RT":2353,"time": "2018-07-29 03:48:11pm", "schedule_type": "STATIC", "schedule_name": "random_16", "is_biased_choice":false,"side_choice": "RIGHT", "trial_number":24,"observed_reward":0,"unobserved_reward":0},{"RT":2355,"time": "2018-07-29 03:48:13pm", "schedule_type": "STATIC", "schedule_name": "random_16", "is_biased_choice":true,"side_choice": "LEFT", "trial_number":25,"observed_reward":0,"unobserved_reward":1},{"RT":2611,"time": "2018-07-29 03:48:16pm", "schedule_type": "STATIC", "schedule_name": "random_16", "is_biased_choice":true,"side_choice": "LEFT", "trial_number":26,"observed_reward":0,"unobserved_reward":0},{"RT":2514,"time": "2018-07-29 03:48:18pm", "schedule_type": "STATIC", "schedule_name": "random_16", "is_biased_choice":true,"side_choice": "LEFT", "trial_number":27,"observed_reward":0,"unobserved_reward":0},{"RT":2571,"time": "2018-07-29 03:48:21pm", "schedule_type": "STATIC", "schedule_name": "random_16", "is_biased_choice":false,"side_choice": "RIGHT", "trial_number":28,"observed_reward":0,"unobserved_reward":0},{"RT":3096,"time": "2018-07-29 03:48:24pm", "schedule_type": "STATIC", "schedule_name": "random_16", "is_biased_choice":false,"side_choice": "RIGHT", "trial_number":29,"observed_reward":0,"unobserved_reward":1},{"RT":34814,"time": "2018-07-29 03:48:59pm", "schedule_type": "STATIC", "schedule_name": "random_16", "is_biased_choice":true,"side_choice": "LEFT", "trial_number":30,"observed_reward":0,"unobserved_reward":0},{"RT":3140,"time": "2018-07-29 03:49:02pm", "schedule_type": "STATIC", "schedule_name": "random_16", "is_biased_choice":false,"side_choice": "RIGHT", "trial_number":31,"observed_reward":1,"unobserved_reward":1},{"RT":3429,"time": "2018-07-29 03:49:05pm", "schedule_type": "STATIC", "schedule_name": "random_16", "is_biased_choice":false,"side_choice": "RIGHT", "trial_number":32,"observed_reward":0,"unobserved_reward":0},{"RT":2708,"time": "2018-07-29 03:49:08pm", "schedule_type": "STATIC", "schedule_name": "random_16", "is_biased_choice":false,"side_choice": "RIGHT", "trial_number":33,"observed_reward":0,"unobserved_reward":0},{"RT":2991,"time": "2018-07-29 03:49:11pm", "schedule_type": "STATIC", "schedule_name": "random_16", "is_biased_choice":false,"side_choice": "RIGHT", "trial_number":34,"observed_reward":0,"unobserved_reward":1},{"RT":2553,"time": "2018-07-29 03:49:13pm", "schedule_type": "STATIC", "schedule_name": "random_16", "is_biased_choice":false,"side_choice": "RIGHT", "trial_number":35,"observed_reward":0,"unobserved_reward":0},{"RT":2895,"time": "2018-07-29 03:49:16pm", "schedule_type": "STATIC", "schedule_name": "random_16", "is_biased_choice":false,"side_choice": "RIGHT", "trial_number":36,"observed_reward":0,"unobserved_reward":0},{"RT":2635,"time": "2018-07-29 03:49:19pm", "schedule_type": "STATIC", "schedule_name": "random_16", "is_biased_choice":true,"side_choice": "LEFT", "trial_number":37,"observed_reward":0,"unobserved_reward":0},{"RT":7114,"time": "2018-07-29 03:49:26pm", "schedule_type": "STATIC", "schedule_name": "random_16", "is_biased_choice":false,"side_choice": "RIGHT", "trial_number":38,"observed_reward":1,"unobserved_reward":0},{"RT":3051,"time": "2018-07-29 03:49:29pm", "schedule_type": "STATIC", "schedule_name": "random_16", "is_biased_choice":true,"side_choice": "LEFT", "trial_number":39,"observed_reward":0,"unobserved_reward":0},{"RT":2820,"time": "2018-07-29 03:49:32pm", "schedule_type": "STATIC", "schedule_name": "random_16", "is_biased_choice":false,"side_choice": "RIGHT", "trial_number":40,"observed_reward":1,"unobserved_reward":0},{"RT":2462,"time": "2018-07-29 03:49:34pm", "schedule_type": "STATIC", "schedule_name": "random_16", "is_biased_choice":false,"side_choice": "RIGHT", "trial_number":41,"observed_reward":0,"unobserved_reward":0},{"RT":3550,"time": "2018-07-29 03:49:38pm", "schedule_type": "STATIC", "schedule_name": "random_16", "is_biased_choice":true,"side_choice": "LEFT", "trial_number":42,"observed_reward":0,"unobserved_reward":0},{"RT":2636,"time": "2018-07-29 03:49:40pm", "schedule_type": "STATIC", "schedule_name": "random_16", "is_biased_choice":false,"side_choice": "RIGHT", "trial_number":43,"observed_reward":1,"unobserved_reward":1},{"RT":2716,"time": "2018-07-29 03:49:43pm", "schedule_type": "STATIC", "schedule_name": "random_16", "is_biased_choice":true,"side_choice": "LEFT", "trial_number":44,"observed_reward":0,"unobserved_reward":0},{"RT":2416,"time": "2018-07-29 03:49:46pm", "schedule_type": "STATIC", "schedule_name": "random_16", "is_biased_choice":false,"side_choice": "RIGHT", "trial_number":45,"observed_reward":0,"unobserved_reward":0},{"RT":2446,"time": "2018-07-29 03:49:48pm", "schedule_type": "STATIC", "schedule_name": "random_16", "is_biased_choice":false,"side_choice": "RIGHT", "trial_number":46,"observed_reward":0,"unobserved_reward":0},{"RT":2621,"time": "2018-07-29 03:49:51pm", "schedule_type": "STATIC", "schedule_name": "random_16", "is_biased_choice":true,"side_choice": "LEFT", "trial_number":47,"observed_reward":0,"unobserved_reward":1},{"RT":2197,"time": "2018-07-29 03:49:53pm", "schedule_type": "STATIC", "schedule_name": "random_16", "is_biased_choice":false,"side_choice": "RIGHT", "trial_number":48,"observed_reward":0,"unobserved_reward":0},{"RT":3032,"time": "2018-07-29 03:49:56pm", "schedule_type": "STATIC", "schedule_name": "random_16", "is_biased_choice":true,"side_choice": "LEFT", "trial_number":49,"observed_reward":1,"unobserved_reward":1},{"RT":2507,"time": "2018-07-29 03:49:58pm", "schedule_type": "STATIC", "schedule_name": "random_16", "is_biased_choice":true,"side_choice": "LEFT", "trial_number":50,"observed_reward":0,"unobserved_reward":0},{"RT":2398,"time": "2018-07-29 03:50:01pm", "schedule_type": "STATIC", "schedule_name": "random_16", "is_biased_choice":false,"side_choice": "RIGHT", "trial_number":51,"observed_reward":1,"unobserved_reward":0},{"RT":2665,"time": "2018-07-29 03:50:03pm", "schedule_type": "STATIC", "schedule_name": "random_16", "is_biased_choice":true,"side_choice": "LEFT", "trial_number":52,"observed_reward":0,"unobserved_reward":1},{"RT":2672,"time": "2018-07-29 03:50:06pm", "schedule_type": "STATIC", "schedule_name": "random_16", "is_biased_choice":false,"side_choice": "RIGHT", "trial_number":53,"observed_reward":0,"unobserved_reward":0},{"RT":2232,"time": "2018-07-29 03:50:08pm", "schedule_type": "STATIC", "schedule_name": "random_16", "is_biased_choice":true,"side_choice": "LEFT", "trial_number":54,"observed_reward":0,"unobserved_reward":0},{"RT":2213,"time": "2018-07-29 03:50:11pm", "schedule_type": "STATIC", "schedule_name": "random_16", "is_biased_choice":false,"side_choice": "RIGHT", "trial_number":55,"observed_reward":0,"unobserved_reward":1},{"RT":2283,"time": "2018-07-29 03:50:13pm", "schedule_type": "STATIC", "schedule_name": "random_16", "is_biased_choice":true,"side_choice": "LEFT", "trial_number":56,"observed_reward":1,"unobserved_reward":0},{"RT":2566,"time": "2018-07-29 03:50:15pm", "schedule_type": "STATIC", "schedule_name": "random_16", "is_biased_choice":true,"side_choice": "LEFT", "trial_number":57,"observed_reward":1,"unobserved_reward":1},{"RT":2319,"time": "2018-07-29 03:50:18pm", "schedule_type": "STATIC", "schedule_name": "random_16", "is_biased_choice":true,"side_choice": "LEFT", "trial_number":58,"observed_reward":1,"unobserved_reward":0},{"RT":2278,"time": "2018-07-29 03:50:20pm", "schedule_type": "STATIC", "schedule_name": "random_16", "is_biased_choice":true,"side_choice": "LEFT", "trial_number":59,"observed_reward":0,"unobserved_reward":0},{"RT":2338,"time": "2018-07-29 03:50:22pm", "schedule_type": "STATIC", "schedule_name": "random_16", "is_biased_choice":true,"side_choice": "LEFT", "trial_number":60,"observed_reward":0,"unobserved_reward":1},{"RT":2186,"time": "2018-07-29 03:50:25pm", "schedule_type": "STATIC", "schedule_name": "random_16", "is_biased_choice":false,"side_choice": "RIGHT", "trial_number":61,"observed_reward":1,"unobserved_reward":0},{"RT":2829,"time": "2018-07-29 03:50:27pm", "schedule_type": "STATIC", "schedule_name": "random_16", "is_biased_choice":false,"side_choice": "RIGHT", "trial_number":62,"observed_reward":0,"unobserved_reward":1},{"RT":2302,"time": "2018-07-29 03:50:30pm", "schedule_type": "STATIC", "schedule_name": "random_16", "is_biased_choice":true,"side_choice": "LEFT", "trial_number":63,"observed_reward":0,"unobserved_reward":0},{"RT":2286,"time": "2018-07-29 03:50:32pm", "schedule_type": "STATIC", "schedule_name": "random_16", "is_biased_choice":false,"side_choice": "RIGHT", "trial_number":64,"observed_reward":0,"unobserved_reward":0},{"RT":2713,"time": "2018-07-29 03:50:35pm", "schedule_type": "STATIC", "schedule_name": "random_16", "is_biased_choice":true,"side_choice": "LEFT", "trial_number":65,"observed_reward":0,"unobserved_reward":0},{"RT":2149,"time": "2018-07-29 03:50:37pm", "schedule_type": "STATIC", "schedule_name": "random_16", "is_biased_choice":false,"side_choice": "RIGHT", "trial_number":66,"observed_reward":0,"unobserved_reward":0},{"RT":2664,"time": "2018-07-29 03:50:40pm", "schedule_type": "STATIC", "schedule_name": "random_16", "is_biased_choice":true,"side_choice": "LEFT", "trial_number":67,"observed_reward":0,"unobserved_reward":0},{"RT":2522,"time": "2018-07-29 03:50:42pm", "schedule_type": "STATIC", "schedule_name": "random_16", "is_biased_choice":true,"side_choice": "LEFT", "trial_number":68,"observed_reward":0,"unobserved_reward":0},{"RT":2717,"time": "2018-07-29 03:50:45pm", "schedule_type": "STATIC", "schedule_name": "random_16", "is_biased_choice":false,"side_choice": "RIGHT", "trial_number":69,"observed_reward":0,"unobserved_reward":0},{"RT":2666,"time": "2018-07-29 03:50:47pm", "schedule_type": "STATIC", "schedule_name": "random_16", "is_biased_choice":true,"side_choice": "LEFT", "trial_number":70,"observed_reward":0,"unobserved_reward":0},{"RT":2569,"time": "2018-07-29 03:50:50pm", "schedule_type": "STATIC", "schedule_name": "random_16", "is_biased_choice":false,"side_choice": "RIGHT", "trial_number":71,"observed_reward":0,"unobserved_reward":1},{"RT":2459,"time": "2018-07-29 03:50:52pm", "schedule_type": "STATIC", "schedule_name": "random_16", "is_biased_choice":true,"side_choice": "LEFT", "trial_number":72,"observed_reward":1,"unobserved_reward":0},{"RT":2347,"time": "2018-07-29 03:50:55pm", "schedule_type": "STATIC", "schedule_name": "random_16", "is_biased_choice":true,"side_choice": "LEFT", "trial_number":73,"observed_reward":0,"unobserved_reward":0},{"RT":2468,"time": "2018-07-29 03:50:57pm", "schedule_type": "STATIC", "schedule_name": "random_16", "is_biased_choice":false,"side_choice": "RIGHT", "trial_number":74,"observed_reward":1,"unobserved_reward":0},{"RT":2285,"time": "2018-07-29 03:51:00pm", "schedule_type": "STATIC", "schedule_name": "random_16", "is_biased_choice":false,"side_choice": "RIGHT", "trial_number":75,"observed_reward":0,"unobserved_reward":1},{"RT":2134,"time": "2018-07-29 03:51:02pm", "schedule_type": "STATIC", "schedule_name": "random_16", "is_biased_choice":true,"side_choice": "LEFT", "trial_number":76,"observed_reward":0,"unobserved_reward":0},{"RT":2040,"time": "2018-07-29 03:51:04pm", "schedule_type": "STATIC", "schedule_name": "random_16", "is_biased_choice":false,"side_choice": "RIGHT", "trial_number":77,"observed_reward":0,"unobserved_reward":1},{"RT":2710,"time": "2018-07-29 03:51:06pm", "schedule_type": "STATIC", "schedule_name": "random_16", "is_biased_choice":true,"side_choice": "LEFT", "trial_number":78,"observed_reward":0,"unobserved_reward":1},{"RT":2069,"time": "2018-07-29 03:51:08pm", "schedule_type": "STATIC", "schedule_name": "random_16", "is_biased_choice":true,"side_choice": "LEFT", "trial_number":79,"observed_reward":0,"unobserved_reward":1},{"RT":2684,"time": "2018-07-29 03:51:11pm", "schedule_type": "STATIC", "schedule_name": "random_16", "is_biased_choice":false,"side_choice": "RIGHT", "trial_number":80,"observed_reward":0,"unobserved_reward":0},{"RT":2198,"time": "2018-07-29 03:51:13pm", "schedule_type": "STATIC", "schedule_name": "random_16", "is_biased_choice":false,"side_choice": "RIGHT", "trial_number":81,"observed_reward":0,"unobserved_reward":0},{"RT":2384,"time": "2018-07-29 03:51:16pm", "schedule_type": "STATIC", "schedule_name": "random_16", "is_biased_choice":true,"side_choice": "LEFT", "trial_number":82,"observed_reward":1,"unobserved_reward":0},{"RT":2300,"time": "2018-07-29 03:51:18pm", "schedule_type": "STATIC", "schedule_name": "random_16", "is_biased_choice":true,"side_choice": "LEFT", "trial_number":83,"observed_reward":0,"unobserved_reward":0},{"RT":2168,"time": "2018-07-29 03:51:20pm", "schedule_type": "STATIC", "schedule_name": "random_16", "is_biased_choice":false,"side_choice": "RIGHT", "trial_number":84,"observed_reward":0,"unobserved_reward":0},{"RT":2598,"time": "2018-07-29 03:51:23pm", "schedule_type": "STATIC", "schedule_name": "random_16", "is_biased_choice":false,"side_choice": "RIGHT", "trial_number":85,"observed_reward":0,"unobserved_reward":1},{"RT":2317,"time": "2018-07-29 03:51:25pm", "schedule_type": "STATIC", "schedule_name": "random_16", "is_biased_choice":true,"side_choice": "LEFT", "trial_number":86,"observed_reward":0,"unobserved_reward":0},{"RT":2286,"time": "2018-07-29 03:51:27pm", "schedule_type": "STATIC", "schedule_name": "random_16", "is_biased_choice":true,"side_choice": "LEFT", "trial_number":87,"observed_reward":0,"unobserved_reward":0},{"RT":2176,"time": "2018-07-29 03:51:30pm", "schedule_type": "STATIC", "schedule_name": "random_16", "is_biased_choice":false,"side_choice": "RIGHT", "trial_number":88,"observed_reward":0,"unobserved_reward":0},{"RT":2085,"time": "2018-07-29 03:51:32pm", "schedule_type": "STATIC", "schedule_name": "random_16", "is_biased_choice":false,"side_choice": "RIGHT", "trial_number":89,"observed_reward":1,"unobserved_reward":1},{"RT":2336,"time": "2018-07-29 03:51:34pm", "schedule_type": "STATIC", "schedule_name": "random_16", "is_biased_choice":false,"side_choice": "RIGHT", "trial_number":90,"observed_reward":0,"unobserved_reward":1},{"RT":2700,"time": "2018-07-29 03:51:37pm", "schedule_type": "STATIC", "schedule_name": "random_16", "is_biased_choice":true,"side_choice": "LEFT", "trial_number":91,"observed_reward":0,"unobserved_reward":0},{"RT":2185,"time": "2018-07-29 03:51:39pm", "schedule_type": "STATIC", "schedule_name": "random_16", "is_biased_choice":true,"side_choice": "LEFT", "trial_number":92,"observed_reward":0,"unobserved_reward":0},{"RT":2163,"time": "2018-07-29 03:51:41pm", "schedule_type": "STATIC", "schedule_name": "random_16", "is_biased_choice":false,"side_choice": "RIGHT", "trial_number":93,"observed_reward":0,"unobserved_reward":0},{"RT":3101,"time": "2018-07-29 03:51:44pm", "schedule_type": "STATIC", "schedule_name": "random_16", "is_biased_choice":false,"side_choice": "RIGHT", "trial_number":94,"observed_reward":0,"unobserved_reward":1},{"RT":2335,"time": "2018-07-29 03:51:47pm", "schedule_type": "STATIC", "schedule_name": "random_16", "is_biased_choice":true,"side_choice": "LEFT", "trial_number":95,"observed_reward":0,"unobserved_reward":0},{"RT":2182,"time": "2018-07-29 03:51:49pm", "schedule_type": "STATIC", "schedule_name": "random_16", "is_biased_choice":true,"side_choice": "LEFT", "trial_number":96,"observed_reward":1,"unobserved_reward":0},{"RT":2364,"time": "2018-07-29 03:51:51pm", "schedule_type": "STATIC", "schedule_name": "random_16", "is_biased_choice":false,"side_choice": "RIGHT", "trial_number":97,"observed_reward":1,"unobserved_reward":0},{"RT":2461,"time": "2018-07-29 03:51:54pm", "schedule_type": "STATIC", "schedule_name": "random_16", "is_biased_choice":true,"side_choice": "LEFT", "trial_number":98,"observed_reward":1,"unobserved_reward":1},{"RT":2174,"time": "2018-07-29 03:51:56pm", "schedule_type": "STATIC", "schedule_name": "random_16", "is_biased_choice":false,"side_choice": "RIGHT", "trial_number":99,"observed_reward":1,"unobserved_reward":1}]