[{"RT":2739,"time": "2018-08-15 01:43:00pm", "schedule_type": "STATIC", "schedule_name": "random_16", "is_biased_choice":true,"side_choice": "LEFT", "trial_number":0,"observed_reward":0,"unobserved_reward":0},{"RT":2794,"time": "2018-08-15 01:43:03pm", "schedule_type": "STATIC", "schedule_name": "random_16", "is_biased_choice":false,"side_choice": "RIGHT", "trial_number":1,"observed_reward":0,"unobserved_reward":0},{"RT":3977,"time": "2018-08-15 01:43:07pm", "schedule_type": "STATIC", "schedule_name": "random_16", "is_biased_choice":true,"side_choice": "LEFT", "trial_number":2,"observed_reward":0,"unobserved_reward":0},{"RT":3946,"time": "2018-08-15 01:43:11pm", "schedule_type": "STATIC", "schedule_name": "random_16", "is_biased_choice":false,"side_choice": "RIGHT", "trial_number":3,"observed_reward":0,"unobserved_reward":0},{"RT":9475,"time": "2018-08-15 01:43:20pm", "schedule_type": "STATIC", "schedule_name": "random_16", "is_biased_choice":true,"side_choice": "LEFT", "trial_number":4,"observed_reward":0,"unobserved_reward":0},{"RT":4141,"time": "2018-08-15 01:43:24pm", "schedule_type": "STATIC", "schedule_name": "random_16", "is_biased_choice":false,"side_choice": "RIGHT", "trial_number":5,"observed_reward":0,"unobserved_reward":0},{"RT":5355,"time": "2018-08-15 01:43:29pm", "schedule_type": "STATIC", "schedule_name": "random_16", "is_biased_choice":true,"side_choice": "LEFT", "trial_number":6,"observed_reward":0,"unobserved_reward":0},{"RT":49337,"time": "2018-08-15 01:44:35pm", "schedule_type": "STATIC", "schedule_name": "random_16", "is_biased_choice":true,"side_choice": "LEFT", "trial_number":7,"observed_reward":0,"unobserved_reward":0},{"RT":24855,"time": "2018-08-15 01:44:46pm", "schedule_type": "STATIC", "schedule_name": "random_16", "is_biased_choice":true,"side_choice": "LEFT", "trial_number":8,"observed_reward":0,"unobserved_reward":0},{"RT":3264,"time": "2018-08-15 01:44:48pm", "schedule_type": "STATIC", "schedule_name": "random_16", "is_biased_choice":false,"side_choice": "RIGHT", "trial_number":9,"observed_reward":1,"unobserved_reward":0},{"RT":2834,"time": "2018-08-15 01:44:50pm", "schedule_type": "STATIC", "schedule_name": "random_16", "is_biased_choice":true,"side_choice": "LEFT", "trial_number":10,"observed_reward":0,"unobserved_reward":0},{"RT":3009,"time": "2018-08-15 01:44:53pm", "schedule_type": "STATIC", "schedule_name": "random_16", "is_biased_choice":false,"side_choice": "RIGHT", "trial_number":11,"observed_reward":0,"unobserved_reward":1},{"RT":2804,"time": "2018-08-15 01:44:56pm", "schedule_type": "STATIC", "schedule_name": "random_16", "is_biased_choice":true,"side_choice": "LEFT", "trial_number":12,"observed_reward":0,"unobserved_reward":1},{"RT":53430,"time": "2018-08-15 01:45:51pm", "schedule_type": "STATIC", "schedule_name": "random_16", "is_biased_choice":true,"side_choice": "LEFT", "trial_number":13,"observed_reward":0,"unobserved_reward":0},{"RT":3183,"time": "2018-08-15 01:45:52pm", "schedule_type": "STATIC", "schedule_name": "random_16", "is_biased_choice":false,"side_choice": "RIGHT", "trial_number":14,"observed_reward":0,"unobserved_reward":1},{"RT":3793,"time": "2018-08-15 01:45:56pm", "schedule_type": "STATIC", "schedule_name": "random_16", "is_biased_choice":true,"side_choice": "LEFT", "trial_number":15,"observed_reward":0,"unobserved_reward":0},{"RT":2561,"time": "2018-08-15 01:45:59pm", "schedule_type": "STATIC", "schedule_name": "random_16", "is_biased_choice":true,"side_choice": "LEFT", "trial_number":16,"observed_reward":0,"unobserved_reward":1},{"RT":2631,"time": "2018-08-15 01:46:01pm", "schedule_type": "STATIC", "schedule_name": "random_16", "is_biased_choice":true,"side_choice": "LEFT", "trial_number":17,"observed_reward":0,"unobserved_reward":0},{"RT":5560,"time": "2018-08-15 01:46:07pm", "schedule_type": "STATIC", "schedule_name": "random_16", "is_biased_choice":false,"side_choice": "RIGHT", "trial_number":18,"observed_reward":0,"unobserved_reward":0},{"RT":12607,"time": "2018-08-15 01:46:19pm", "schedule_type": "STATIC", "schedule_name": "random_16", "is_biased_choice":true,"side_choice": "LEFT", "trial_number":19,"observed_reward":0,"unobserved_reward":1},{"RT":2765,"time": "2018-08-15 01:46:22pm", "schedule_type": "STATIC", "schedule_name": "random_16", "is_biased_choice":false,"side_choice": "RIGHT", "trial_number":20,"observed_reward":1,"unobserved_reward":0},{"RT":2733,"time": "2018-08-15 01:46:26pm", "schedule_type": "STATIC", "schedule_name": "random_16", "is_biased_choice":true,"side_choice": "LEFT", "trial_number":21,"observed_reward":0,"unobserved_reward":1},{"RT":9668,"time": "2018-08-15 01:46:35pm", "schedule_type": "STATIC", "schedule_name": "random_16", "is_biased_choice":true,"side_choice": "LEFT", "trial_number":22,"observed_reward":1,"unobserved_reward":0},{"RT":3227,"time": "2018-08-15 01:46:38pm", "schedule_type": "STATIC", "schedule_name": "random_16", "is_biased_choice":true,"side_choice": "LEFT", "trial_number":23,"observed_reward":0,"unobserved_reward":0},