[{"RT":5233,"time": "2018-08-15 01:42:32pm", "schedule_type": "STATIC", "schedule_name": "random_16", "is_biased_choice":true,"side_choice": "LEFT", "trial_number":0,"observed_reward":0,"unobserved_reward":0},{"RT":5469,"time": "2018-08-15 01:42:38pm", "schedule_type": "STATIC", "schedule_name": "random_16", "is_biased_choice":true,"side_choice": "LEFT", "trial_number":1,"observed_reward":0,"unobserved_reward":0},{"RT":3424,"time": "2018-08-15 01:42:41pm", "schedule_type": "STATIC", "schedule_name": "random_16", "is_biased_choice":false,"side_choice": "RIGHT", "trial_number":2,"observed_reward":0,"unobserved_reward":0},{"RT":3349,"time": "2018-08-15 01:42:45pm", "schedule_type": "STATIC", "schedule_name": "random_16", "is_biased_choice":true,"side_choice": "LEFT", "trial_number":3,"observed_reward":0,"unobserved_reward":0},{"RT":3088,"time": "2018-08-15 01:42:47pm", "schedule_type": "STATIC", "schedule_name": "random_16", "is_biased_choice":true,"side_choice": "LEFT", "trial_number":4,"observed_reward":0,"unobserved_reward":0},{"RT":3197,"time": "2018-08-15 01:42:51pm", "schedule_type": "STATIC", "schedule_name": "random_16", "is_biased_choice":true,"side_choice": "LEFT", "trial_number":5,"observed_reward":0,"unobserved_reward":0},{"RT":3829,"time": "2018-08-15 01:42:54pm", "schedule_type": "STATIC", "schedule_name": "random_16", "is_biased_choice":true,"side_choice": "LEFT", "trial_number":6,"observed_reward":0,"unobserved_reward":0},{"RT":2787,"time": "2018-08-15 01:42:57pm", "schedule_type": "STATIC", "schedule_name": "random_16", "is_biased_choice":false,"side_choice": "RIGHT", "trial_number":7,"observed_reward":0,"unobserved_reward":0},{"RT":2723,"time": "2018-08-15 01:43:00pm", "schedule_type": "STATIC", "schedule_name": "random_16", "is_biased_choice":false,"side_choice": "RIGHT", "trial_number":8,"observed_reward":0,"unobserved_reward":0},{"RT":4296,"time": "2018-08-15 01:43:04pm", "schedule_type": "STATIC", "schedule_name": "random_16", "is_biased_choice":false,"side_choice": "RIGHT", "trial_number":9,"observed_reward":1,"unobserved_reward":0},{"RT":3135,"time": "2018-08-15 01:43:08pm", "schedule_type": "STATIC", "schedule_name": "random_16", "is_biased_choice":false,"side_choice": "RIGHT", "trial_number":10,"observed_reward":0,"unobserved_reward":0},{"RT":3094,"time": "2018-08-15 01:43:10pm", "schedule_type": "STATIC", "schedule_name": "random_16", "is_biased_choice":false,"side_choice": "RIGHT", "trial_number":11,"observed_reward":0,"unobserved_reward":1},{"RT":2640,"time": "2018-08-15 01:43:13pm", "schedule_type": "STATIC", "schedule_name": "random_16", "is_biased_choice":true,"side_choice": "LEFT", "trial_number":12,"observed_reward":0,"unobserved_reward":1},{"RT":2531,"time": "2018-08-15 01:43:15pm", "schedule_type": "STATIC", "schedule_name": "random_16", "is_biased_choice":false,"side_choice": "RIGHT", "trial_number":13,"observed_reward":0,"unobserved_reward":0},{"RT":2479,"time": "2018-08-15 01:43:18pm", "schedule_type": "STATIC", "schedule_name": "random_16", "is_biased_choice":false,"side_choice": "RIGHT", "trial_number":14,"observed_reward":0,"unobserved_reward":1},{"RT":2513,"time": "2018-08-15 01:43:20pm", "schedule_type": "STATIC", "schedule_name": "random_16", "is_biased_choice":false,"side_choice": "RIGHT", "trial_number":15,"observed_reward":0,"unobserved_reward":0},{"RT":2524,"time": "2018-08-15 01:43:23pm", "schedule_type": "STATIC", "schedule_name": "random_16", "is_biased_choice":false,"side_choice": "RIGHT", "trial_number":16,"observed_reward":1,"unobserved_reward":0},{"RT":2795,"time": "2018-08-15 01:43:26pm", "schedule_type": "STATIC", "schedule_name": "random_16", "is_biased_choice":false,"side_choice": "RIGHT", "trial_number":17,"observed_reward":0,"unobserved_reward":0},{"RT":2451,"time": "2018-08-15 01:43:28pm", "schedule_type": "STATIC", "schedule_name": "random_16", "is_biased_choice":false,"side_choice": "RIGHT", "trial_number":18,"observed_reward":0,"unobserved_reward":0},{"RT":2782,"time": "2018-08-15 01:43:31pm", "schedule_type": "STATIC", "schedule_name": "random_16", "is_biased_choice":false,"side_choice": "RIGHT", "trial_number":19,"observed_reward":1,"unobserved_reward":0},{"RT":2762,"time": "2018-08-15 01:43:34pm", "schedule_type": "STATIC", "schedule_name": "random_16", "is_biased_choice":false,"side_choice": "RIGHT", "trial_number":20,"observed_reward":1,"unobserved_reward":0},{"RT":2936,"time": "2018-08-15 01:43:37pm", "schedule_type": "STATIC", "schedule_name": "random_16", "is_biased_choice":false,"side_choice": "RIGHT", "trial_number":21,"observed_reward":1,"unobserved_reward":0},{"RT":2519,"time": "2018-08-15 01:43:39pm", "schedule_type": "STATIC", "schedule_name": "random_16", "is_biased_choice":false,"side_choice": "RIGHT", "trial_number":22,"observed_reward":0,"unobserved_reward":1},{"RT":2783,"time": "2018-08-15 01:43:42pm", "schedule_type": "STATIC", "schedule_name": "random_16", "is_biased_choice":false,"side_choice": "RIGHT", "trial_number":23,"observed_reward":0,"unobserved_reward":0},{"RT":2732,"time": "2018-08-15 01:43:45pm", "schedule_type": "STATIC", "schedule_name": "random_16", "is_biased_choice":false,"side_choice": "RIGHT", "trial_number":24,"observed_reward":0,"unobserved_reward":0},{"RT":2812,"time": "2018-08-15 01:43:47pm", "schedule_type": "STATIC", "schedule_name": "random_16", "is_biased_choice":false,"side_choice": "RIGHT", "trial_number":25,"observed_reward":1,"unobserved_reward":0},{"RT":2933,"time": "2018-08-15 01:43:50pm", "schedule_type": "STATIC", "schedule_name": "random_16", "is_biased_choice":false,"side_choice": "RIGHT", "trial_number":26,"observed_reward":0,"unobserved_reward":0},{"RT":2613,"time": "2018-08-15 01:43:53pm", "schedule_type": "STATIC", "schedule_name": "random_16", "is_biased_choice":false,"side_choice": "RIGHT", "trial_number":27,"observed_reward":0,"unobserved_reward":0},{"RT":2535,"time": "2018-08-15 01:43:56pm", "schedule_type": "STATIC", "schedule_name": "random_16", "is_biased_choice":true,"side_choice": "LEFT", "trial_number":28,"observed_reward":0,"unobserved_reward":0},{"RT":2567,"time": "2018-08-15 01:43:58pm", "schedule_type": "STATIC", "schedule_name": "random_16", "is_biased_choice":false,"side_choice": "RIGHT", "trial_number":29,"observed_reward":0,"unobserved_reward":1},{"RT":2696,"time": "2018-08-15 01:44:01pm", "schedule_type": "STATIC", "schedule_name": "random_16", "is_biased_choice":false,"side_choice": "RIGHT", "trial_number":30,"observed_reward":0,"unobserved_reward":0},{"RT":2623,"time": "2018-08-15 01:44:03pm", "schedule_type": "STATIC", "schedule_name": "random_16", "is_biased_choice":false,"side_choice": "RIGHT", "trial_number":31,"observed_reward":1,"unobserved_reward":1},{"RT":3265,"time": "2018-08-15 01:44:07pm", "schedule_type": "STATIC", "schedule_name": "random_16", "is_biased_choice":false,"side_choice": "RIGHT", "trial_number":32,"observed_reward":0,"unobserved_reward":0},{"RT":3156,"time": "2018-08-15 01:44:10pm", "schedule_type": "STATIC", "schedule_name": "random_16", "is_biased_choice":false,"side_choice": "RIGHT", "trial_number":33,"observed_reward":0,"unobserved_reward":0},{"RT":2744,"time": "2018-08-15 01:44:13pm", "schedule_type": "STATIC", "schedule_name": "random_16", "is_biased_choice":false,"side_choice": "RIGHT", "trial_number":34,"observed_reward":0,"unobserved_reward":1},{"RT":2445,"time": "2018-08-15 01:44:15pm", "schedule_type": "STATIC", "schedule_name": "random_16", "is_biased_choice":false,"side_choice": "RIGHT", "trial_number":35,"observed_reward":0,"unobserved_reward":0},{"RT":2553,"time": "2018-08-15 01:44:18pm", "schedule_type": "STATIC", "schedule_name": "random_16", "is_biased_choice":false,"side_choice": "RIGHT", "trial_number":36,"observed_reward":0,"unobserved_reward":0},{"RT":2694,"time": "2018-08-15 01:44:20pm", "schedule_type": "STATIC", "schedule_name": "random_16", "is_biased_choice":false,"side_choice": "RIGHT", "trial_number":37,"observed_reward":0,"unobserved_reward":0},{"RT":2628,"time": "2018-08-15 01:44:24pm", "schedule_type": "STATIC", "schedule_name": "random_16", "is_biased_choice":false,"side_choice": "RIGHT", "trial_number":38,"observed_reward":1,"unobserved_reward":0},{"RT":7630,"time": "2018-08-15 01:44:31pm", "schedule_type": "STATIC", "schedule_name": "random_16", "is_biased_choice":false,"side_choice": "RIGHT", "trial_number":39,"observed_reward":0,"unobserved_reward":0},{"RT":3000,"time": "2018-08-15 01:44:34pm", "schedule_type": "STATIC", "schedule_name": "random_16", "is_biased_choice":false,"side_choice": "RIGHT", "trial_number":40,"observed_reward":1,"unobserved_reward":0},{"RT":2938,"time": "2018-08-15 01:44:36pm", "schedule_type": "STATIC", "schedule_name": "random_16", "is_biased_choice":false,"side_choice": "RIGHT", "trial_number":41,"observed_reward":0,"unobserved_reward":0},{"RT":2620,"time": "2018-08-15 01:44:39pm", "schedule_type": "STATIC", "schedule_name": "random_16", "is_biased_choice":false,"side_choice": "RIGHT", "trial_number":42,"observed_reward":0,"unobserved_reward":0},{"RT":2541,"time": "2018-08-15 01:44:42pm", "schedule_type": "STATIC", "schedule_name": "random_16", "is_biased_choice":false,"side_choice": "RIGHT", "trial_number":43,"observed_reward":1,"unobserved_reward":1},{"RT":2700,"time": "2018-08-15 01:44:44pm", "schedule_type": "STATIC", "schedule_name": "random_16", "is_biased_choice":false,"side_choice": "RIGHT", "trial_number":44,"observed_reward":0,"unobserved_reward":0},{"RT":2881,"time": "2018-08-15 01:44:47pm", "schedule_type": "STATIC", "schedule_name": "random_16", "is_biased_choice":false,"side_choice": "RIGHT", "trial_number":45,"observed_reward":0,"unobserved_reward":0},{"RT":2587,"time": "2018-08-15 01:44:50pm", "schedule_type": "STATIC", "schedule_name": "random_16", "is_biased_choice":false,"side_choice": "RIGHT", "trial_number":46,"observed_reward":0,"unobserved_reward":0},{"RT":2685,"time": "2018-08-15 01:44:53pm", "schedule_type": "STATIC", "schedule_name": "random_16", "is_biased_choice":false,"side_choice": "RIGHT", "trial_number":47,"observed_reward":1,"unobserved_reward":0},{"RT":2672,"time": "2018-08-15 01:44:55pm", "schedule_type": "STATIC", "schedule_name": "random_16", "is_biased_choice":false,"side_choice": "RIGHT", "trial_number":48,"observed_reward":0,"unobserved_reward":0},{"RT":3100,"time": "2018-08-15 01:44:59pm", "schedule_type": "STATIC", "schedule_name": "random_16", "is_biased_choice":true,"side_choice": "LEFT", "trial_number":49,"observed_reward":1,"unobserved_reward":1},{"RT":3099,"time": "2018-08-15 01:45:01pm", "schedule_type": "STATIC", "schedule_name": "random_16", "is_biased_choice":true,"side_choice": "LEFT", "trial_number":50,"observed_reward":0,"unobserved_reward":0},{"RT":2465,"time": "2018-08-15 01:45:04pm", "schedule_type": "STATIC", "schedule_name": "random_16", "is_biased_choice":false,"side_choice": "RIGHT", "trial_number":51,"observed_reward":1,"unobserved_reward":0},{"RT":2810,"time": "2018-08-15 01:45:07pm", "schedule_type": "STATIC", "schedule_name": "random_16", "is_biased_choice":false,"side_choice": "RIGHT", "trial_number":52,"observed_reward":1,"unobserved_reward":0},{"RT":2970,"time": "2018-08-15 01:45:10pm", "schedule_type": "STATIC", "schedule_name": "random_16", "is_biased_choice":false,"side_choice": "RIGHT", "trial_number":53,"observed_reward":0,"unobserved_reward":0},{"RT":2897,"time": "2018-08-15 01:45:13pm", "schedule_type": "STATIC", "schedule_name": "random_16", "is_biased_choice":false,"side_choice": "RIGHT", "trial_number":54,"observed_reward":0,"unobserved_reward":0},{"RT":4300,"time": "2018-08-15 01:45:17pm", "schedule_type": "STATIC", "schedule_name": "random_16", "is_biased_choice":false,"side_choice": "RIGHT", "trial_number":55,"observed_reward":0,"unobserved_reward":1},{"RT":2825,"time": "2018-08-15 01:45:20pm", "schedule_type": "STATIC", "schedule_name": "random_16", "is_biased_choice":true,"side_choice": "LEFT", "trial_number":56,"observed_reward":1,"unobserved_reward":0},{"RT":2733,"time": "2018-08-15 01:45:24pm", "schedule_type": "STATIC", "schedule_name": "random_16", "is_biased_choice":true,"side_choice": "LEFT", "trial_number":57,"observed_reward":1,"unobserved_reward":1},{"RT":3666,"time": "2018-08-15 01:45:26pm", "schedule_type": "STATIC", "schedule_name": "random_16", "is_biased_choice":true,"side_choice": "LEFT", "trial_number":58,"observed_reward":1,"unobserved_reward":0},{"RT":3032,"time": "2018-08-15 01:45:29pm", "schedule_type": "STATIC", "schedule_name": "random_16", "is_biased_choice":true,"side_choice": "LEFT", "trial_number":59,"observed_reward":0,"unobserved_reward":0},{"RT":3323,"time": "2018-08-15 01:45:32pm", "schedule_type": "STATIC", "schedule_name": "random_16", "is_biased_choice":false,"side_choice": "RIGHT", "trial_number":60,"observed_reward":1,"unobserved_reward":0},{"RT":2786,"time": "2018-08-15 01:45:35pm", "schedule_type": "STATIC", "schedule_name": "random_16", "is_biased_choice":true,"side_choice": "LEFT", "trial_number":61,"observed_reward":0,"unobserved_reward":1},{"RT":2389,"time": "2018-08-15 01:45:38pm", "schedule_type": "STATIC", "schedule_name": "random_16", "is_biased_choice":true,"side_choice": "LEFT", "trial_number":62,"observed_reward":1,"unobserved_reward":0},{"RT":2607,"time": "2018-08-15 01:45:40pm", "schedule_type": "STATIC", "schedule_name": "random_16", "is_biased_choice":true,"side_choice": "LEFT", "trial_number":63,"observed_reward":0,"unobserved_reward":0},{"RT":2376,"time": "2018-08-15 01:45:43pm", "schedule_type": "STATIC", "schedule_name": "random_16", "is_biased_choice":false,"side_choice": "RIGHT", "trial_number":64,"observed_reward":0,"unobserved_reward":0},{"RT":2419,"time": "2018-08-15 01:45:45pm", "schedule_type": "STATIC", "schedule_name": "random_16", "is_biased_choice":false,"side_choice": "RIGHT", "trial_number":65,"observed_reward":0,"unobserved_reward":0},{"RT":2420,"time": "2018-08-15 01:45:47pm", "schedule_type": "STATIC", "schedule_name": "random_16", "is_biased_choice":true,"side_choice": "LEFT", "trial_number":66,"observed_reward":0,"unobserved_reward":0},{"RT":2433,"time": "2018-08-15 01:45:50pm", "schedule_type": "STATIC", "schedule_name": "random_16", "is_biased_choice":true,"side_choice": "LEFT", "trial_number":67,"observed_reward":0,"unobserved_reward":0},{"RT":2432,"time": "2018-08-15 01:45:52pm", "schedule_type": "STATIC", "schedule_name": "random_16", "is_biased_choice":true,"side_choice": "LEFT", "trial_number":68,"observed_reward":0,"unobserved_reward":0},{"RT":2588,"time": "2018-08-15 01:45:55pm", "schedule_type": "STATIC", "schedule_name": "random_16", "is_biased_choice":true,"side_choice": "LEFT", "trial_number":69,"observed_reward":0,"unobserved_reward":0},{"RT":2988,"time": "2018-08-15 01:45:58pm", "schedule_type": "STATIC", "schedule_name": "random_16", "is_biased_choice":false,"side_choice": "RIGHT", "trial_number":70,"observed_reward":0,"unobserved_reward":0},{"RT":2481,"time": "2018-08-15 01:46:00pm", "schedule_type": "STATIC", "schedule_name": "random_16", "is_biased_choice":false,"side_choice": "RIGHT", "trial_number":71,"observed_reward":0,"unobserved_reward":1},{"RT":2537,"time": "2018-08-15 01:46:03pm", "schedule_type": "STATIC", "schedule_name": "random_16", "is_biased_choice":false,"side_choice": "RIGHT", "trial_number":72,"observed_reward":0,"unobserved_reward":1},{"RT":2619,"time": "2018-08-15 01:46:05pm", "schedule_type": "STATIC", "schedule_name": "random_16", "is_biased_choice":false,"side_choice": "RIGHT", "trial_number":73,"observed_reward":0,"unobserved_reward":0},{"RT":2502,"time": "2018-08-15 01:46:08pm", "schedule_type": "STATIC", "schedule_name": "random_16", "is_biased_choice":false,"side_choice": "RIGHT", "trial_number":74,"observed_reward":1,"unobserved_reward":0},{"RT":2573,"time": "2018-08-15 01:46:11pm", "schedule_type": "STATIC", "schedule_name": "random_16", "is_biased_choice":false,"side_choice": "RIGHT", "trial_number":75,"observed_reward":0,"unobserved_reward":1},{"RT":5540,"time": "2018-08-15 01:46:16pm", "schedule_type": "STATIC", "schedule_name": "random_16", "is_biased_choice":true,"side_choice": "LEFT", "trial_number":76,"observed_reward":0,"unobserved_reward":0},{"RT":2585,"time": "2018-08-15 01:46:19pm", "schedule_type": "STATIC", "schedule_name": "random_16", "is_biased_choice":true,"side_choice": "LEFT", "trial_number":77,"observed_reward":1,"unobserved_reward":0},{"RT":2514,"time": "2018-08-15 01:46:21pm", "schedule_type": "STATIC", "schedule_name": "random_16", "is_biased_choice":true,"side_choice": "LEFT", "trial_number":78,"observed_reward":0,"unobserved_reward":1},{"RT":2515,"time": "2018-08-15 01:46:25pm", "schedule_type": "STATIC", "schedule_name": "random_16", "is_biased_choice":true,"side_choice": "LEFT", "trial_number":79,"observed_reward":0,"unobserved_reward":1},{"RT":2389,"time": "2018-08-15 01:46:27pm", "schedule_type": "STATIC", "schedule_name": "random_16", "is_biased_choice":false,"side_choice": "RIGHT", "trial_number":80,"observed_reward":0,"unobserved_reward":0},{"RT":2697,"time": "2018-08-15 01:46:29pm", "schedule_type": "STATIC", "schedule_name": "random_16", "is_biased_choice":false,"side_choice": "RIGHT", "trial_number":81,"observed_reward":0,"unobserved_reward":0},{"RT":3787,"time": "2018-08-15 01:46:33pm", "schedule_type": "STATIC", "schedule_name": "random_16", "is_biased_choice":true,"side_choice": "LEFT", "trial_number":82,"observed_reward":1,"unobserved_reward":0},{"RT":2882,"time": "2018-08-15 01:46:35pm", "schedule_type": "STATIC", "schedule_name": "random_16", "is_biased_choice":true,"side_choice": "LEFT", "trial_number":83,"observed_reward":0,"unobserved_reward":0},{"RT":2438,"time": "2018-08-15 01:46:38pm", "schedule_type": "STATIC", "schedule_name": "random_16", "is_biased_choice":true,"side_choice": "LEFT", "trial_number":84,"observed_reward":0,"unobserved_reward":0},{"RT":2537,"time": "2018-08-15 01:46:40pm", "schedule_type": "STATIC", "schedule_name": "random_16", "is_biased_choice":true,"side_choice": "LEFT", "trial_number":85,"observed_reward":1,"unobserved_reward":0},{"RT":2643,"time": "2018-08-15 01:46:43pm", "schedule_type": "STATIC", "schedule_name": "random_16", "is_biased_choice":true,"side_choice": "LEFT", "trial_number":86,"observed_reward":0,"unobserved_reward":0},{"RT":2655,"time": "2018-08-15 01:46:46pm", "schedule_type": "STATIC", "schedule_name": "random_16", "is_biased_choice":true,"side_choice": "LEFT", "trial_number":87,"observed_reward":0,"unobserved_reward":0},{"RT":3208,"time": "2018-08-15 01:46:49pm", "schedule_type": "STATIC", "schedule_name": "random_16", "is_biased_choice":true,"side_choice": "LEFT", "trial_number":88,"observed_reward":0,"unobserved_reward":0},{"RT":2637,"time": "2018-08-15 01:46:52pm", "schedule_type": "STATIC", "schedule_name": "random_16", "is_biased_choice":false,"side_choice": "RIGHT", "trial_number":89,"observed_reward":1,"unobserved_reward":1},{"RT":2734,"time": "2018-08-15 01:46:54pm", "schedule_type": "STATIC", "schedule_name": "random_16", "is_biased_choice":false,"side_choice": "RIGHT", "trial_number":90,"observed_reward":0,"unobserved_reward":1},{"RT":2499,"time": "2018-08-15 01:46:57pm", "schedule_type": "STATIC", "schedule_name": "random_16", "is_biased_choice":false,"side_choice": "RIGHT", "trial_number":91,"observed_reward":0,"unobserved_reward":0},{"RT":2436,"time": "2018-08-15 01:46:59pm", "schedule_type": "STATIC", "schedule_name": "random_16", "is_biased_choice":false,"side_choice": "RIGHT", "trial_number":92,"observed_reward":0,"unobserved_reward":0},{"RT":2576,"time": "2018-08-15 01:47:02pm", "schedule_type": "STATIC", "schedule_name": "random_16", "is_biased_choice":false,"side_choice": "RIGHT", "trial_number":93,"observed_reward":0,"unobserved_reward":0},{"RT":2525,"time": "2018-08-15 01:47:04pm", "schedule_type": "STATIC", "schedule_name": "random_16", "is_biased_choice":false,"side_choice": "RIGHT", "trial_number":94,"observed_reward":0,"unobserved_reward":1},{"RT":3572,"time": "2018-08-15 01:47:08pm", "schedule_type": "STATIC", "schedule_name": "random_16", "is_biased_choice":false,"side_choice": "RIGHT", "trial_number":95,"observed_reward":0,"unobserved_reward":0},{"RT":2860,"time": "2018-08-15 01:47:11pm", "schedule_type": "STATIC", "schedule_name": "random_16", "is_biased_choice":false,"side_choice": "RIGHT", "trial_number":96,"observed_reward":0,"unobserved_reward":1},{"RT":2714,"time": "2018-08-15 01:47:13pm", "schedule_type": "STATIC", "schedule_name": "random_16", "is_biased_choice":false,"side_choice": "RIGHT", "trial_number":97,"observed_reward":1,"unobserved_reward":0},{"RT":2876,"time": "2018-08-15 01:47:16pm", "schedule_type": "STATIC", "schedule_name": "random_16", "is_biased_choice":false,"side_choice": "RIGHT", "trial_number":98,"observed_reward":1,"unobserved_reward":1},{"RT":2714,"time": "2018-08-15 01:47:19pm", "schedule_type": "STATIC", "schedule_name": "random_16", "is_biased_choice":false,"side_choice": "RIGHT", "trial_number":99,"observed_reward":1,"unobserved_reward":1},