[{"RT":2044,"time": "2018-08-15 03:58:17pm", "schedule_type": "STATIC", "schedule_name": "random_16", "is_biased_choice":false,"side_choice": "RIGHT", "trial_number":0,"observed_reward":0,"unobserved_reward":0},{"RT":3215,"time": "2018-08-15 03:58:21pm", "schedule_type": "STATIC", "schedule_name": "random_16", "is_biased_choice":true,"side_choice": "LEFT", "trial_number":1,"observed_reward":0,"unobserved_reward":0},{"RT":2641,"time": "2018-08-15 03:58:23pm", "schedule_type": "STATIC", "schedule_name": "random_16", "is_biased_choice":true,"side_choice": "LEFT", "trial_number":2,"observed_reward":0,"unobserved_reward":0},{"RT":2557,"time": "2018-08-15 03:58:26pm", "schedule_type": "STATIC", "schedule_name": "random_16", "is_biased_choice":false,"side_choice": "RIGHT", "trial_number":3,"observed_reward":0,"unobserved_reward":0},{"RT":2731,"time": "2018-08-15 03:58:28pm", "schedule_type": "STATIC", "schedule_name": "random_16", "is_biased_choice":false,"side_choice": "RIGHT", "trial_number":4,"observed_reward":0,"unobserved_reward":0},{"RT":2751,"time": "2018-08-15 03:58:31pm", "schedule_type": "STATIC", "schedule_name": "random_16", "is_biased_choice":true,"side_choice": "LEFT", "trial_number":5,"observed_reward":0,"unobserved_reward":0},{"RT":2992,"time": "2018-08-15 03:58:34pm", "schedule_type": "STATIC", "schedule_name": "random_16", "is_biased_choice":true,"side_choice": "LEFT", "trial_number":6,"observed_reward":0,"unobserved_reward":0},{"RT":3534,"time": "2018-08-15 03:58:38pm", "schedule_type": "STATIC", "schedule_name": "random_16", "is_biased_choice":false,"side_choice": "RIGHT", "trial_number":7,"observed_reward":0,"unobserved_reward":0},{"RT":2823,"time": "2018-08-15 03:58:41pm", "schedule_type": "STATIC", "schedule_name": "random_16", "is_biased_choice":false,"side_choice": "RIGHT", "trial_number":8,"observed_reward":0,"unobserved_reward":0},{"RT":2493,"time": "2018-08-15 03:58:43pm", "schedule_type": "STATIC", "schedule_name": "random_16", "is_biased_choice":false,"side_choice": "RIGHT", "trial_number":9,"observed_reward":1,"unobserved_reward":0},{"RT":2588,"time": "2018-08-15 03:58:46pm", "schedule_type": "STATIC", "schedule_name": "random_16", "is_biased_choice":false,"side_choice": "RIGHT", "trial_number":10,"observed_reward":0,"unobserved_reward":0},{"RT":2738,"time": "2018-08-15 03:58:48pm", "schedule_type": "STATIC", "schedule_name": "random_16", "is_biased_choice":false,"side_choice": "RIGHT", "trial_number":11,"observed_reward":0,"unobserved_reward":1},{"RT":2469,"time": "2018-08-15 03:58:51pm", "schedule_type": "STATIC", "schedule_name": "random_16", "is_biased_choice":true,"side_choice": "LEFT", "trial_number":12,"observed_reward":0,"unobserved_reward":1},{"RT":2382,"time": "2018-08-15 03:58:53pm", "schedule_type": "STATIC", "schedule_name": "random_16", "is_biased_choice":false,"side_choice": "RIGHT", "trial_number":13,"observed_reward":0,"unobserved_reward":0},{"RT":2419,"time": "2018-08-15 03:58:56pm", "schedule_type": "STATIC", "schedule_name": "random_16", "is_biased_choice":false,"side_choice": "RIGHT", "trial_number":14,"observed_reward":0,"unobserved_reward":1},{"RT":2357,"time": "2018-08-15 03:58:58pm", "schedule_type": "STATIC", "schedule_name": "random_16", "is_biased_choice":true,"side_choice": "LEFT", "trial_number":15,"observed_reward":0,"unobserved_reward":0},{"RT":2718,"time": "2018-08-15 03:59:01pm", "schedule_type": "STATIC", "schedule_name": "random_16", "is_biased_choice":false,"side_choice": "RIGHT", "trial_number":16,"observed_reward":1,"unobserved_reward":0},{"RT":2592,"time": "2018-08-15 03:59:03pm", "schedule_type": "STATIC", "schedule_name": "random_16", "is_biased_choice":false,"side_choice": "RIGHT", "trial_number":17,"observed_reward":0,"unobserved_reward":0},{"RT":2805,"time": "2018-08-15 03:59:06pm", "schedule_type": "STATIC", "schedule_name": "random_16", "is_biased_choice":false,"side_choice": "RIGHT", "trial_number":18,"observed_reward":0,"unobserved_reward":0},{"RT":2383,"time": "2018-08-15 03:59:08pm", "schedule_type": "STATIC", "schedule_name": "random_16", "is_biased_choice":false,"side_choice": "RIGHT", "trial_number":19,"observed_reward":1,"unobserved_reward":0},{"RT":2436,"time": "2018-08-15 03:59:11pm", "schedule_type": "STATIC", "schedule_name": "random_16", "is_biased_choice":true,"side_choice": "LEFT", "trial_number":20,"observed_reward":0,"unobserved_reward":1},{"RT":2458,"time": "2018-08-15 03:59:13pm", "schedule_type": "STATIC", "schedule_name": "random_16", "is_biased_choice":false,"side_choice": "RIGHT", "trial_number":21,"observed_reward":1,"unobserved_reward":0},{"RT":2427,"time": "2018-08-15 03:59:16pm", "schedule_type": "STATIC", "schedule_name": "random_16", "is_biased_choice":false,"side_choice": "RIGHT", "trial_number":22,"observed_reward":0,"unobserved_reward":1},{"RT":2385,"time": "2018-08-15 03:59:18pm", "schedule_type": "STATIC", "schedule_name": "random_16", "is_biased_choice":false,"side_choice": "RIGHT", "trial_number":23,"observed_reward":0,"unobserved_reward":0},{"RT":2653,"time": "2018-08-15 03:59:21pm", "schedule_type": "STATIC", "schedule_name": "random_16", "is_biased_choice":true,"side_choice": "LEFT", "trial_number":24,"observed_reward":0,"unobserved_reward":0},{"RT":2610,"time": "2018-08-15 03:59:23pm", "schedule_type": "STATIC", "schedule_name": "random_16", "is_biased_choice":false,"side_choice": "RIGHT", "trial_number":25,"observed_reward":1,"unobserved_reward":0},{"RT":2380,"time": "2018-08-15 03:59:26pm", "schedule_type": "STATIC", "schedule_name": "random_16", "is_biased_choice":false,"side_choice": "RIGHT", "trial_number":26,"observed_reward":0,"unobserved_reward":0},{"RT":2426,"time": "2018-08-15 03:59:28pm", "schedule_type": "STATIC", "schedule_name": "random_16", "is_biased_choice":false,"side_choice": "RIGHT", "trial_number":27,"observed_reward":0,"unobserved_reward":0},{"RT":2323,"time": "2018-08-15 03:59:31pm", "schedule_type": "STATIC", "schedule_name": "random_16", "is_biased_choice":false,"side_choice": "RIGHT", "trial_number":28,"observed_reward":0,"unobserved_reward":0},{"RT":2516,"time": "2018-08-15 03:59:33pm", "schedule_type": "STATIC", "schedule_name": "random_16", "is_biased_choice":false,"side_choice": "RIGHT", "trial_number":29,"observed_reward":0,"unobserved_reward":1},{"RT":2516,"time": "2018-08-15 03:59:36pm", "schedule_type": "STATIC", "schedule_name": "random_16", "is_biased_choice":false,"side_choice": "RIGHT", "trial_number":30,"observed_reward":0,"unobserved_reward":0},{"RT":2280,"time": "2018-08-15 03:59:38pm", "schedule_type": "STATIC", "schedule_name": "random_16", "is_biased_choice":true,"side_choice": "LEFT", "trial_number":31,"observed_reward":1,"unobserved_reward":1},{"RT":2582,"time": "2018-08-15 03:59:40pm", "schedule_type": "STATIC", "schedule_name": "random_16", "is_biased_choice":false,"side_choice": "RIGHT", "trial_number":32,"observed_reward":0,"unobserved_reward":0},{"RT":2385,"time": "2018-08-15 03:59:43pm", "schedule_type": "STATIC", "schedule_name": "random_16", "is_biased_choice":true,"side_choice": "LEFT", "trial_number":33,"observed_reward":0,"unobserved_reward":0},{"RT":2269,"time": "2018-08-15 03:59:45pm", "schedule_type": "STATIC", "schedule_name": "random_16", "is_biased_choice":true,"side_choice": "LEFT", "trial_number":34,"observed_reward":1,"unobserved_reward":0},{"RT":2884,"time": "2018-08-15 03:59:48pm", "schedule_type": "STATIC", "schedule_name": "random_16", "is_biased_choice":true,"side_choice": "LEFT", "trial_number":35,"observed_reward":0,"unobserved_reward":0},{"RT":2291,"time": "2018-08-15 03:59:50pm", "schedule_type": "STATIC", "schedule_name": "random_16", "is_biased_choice":true,"side_choice": "LEFT", "trial_number":36,"observed_reward":0,"unobserved_reward":0},{"RT":2448,"time": "2018-08-15 03:59:53pm", "schedule_type": "STATIC", "schedule_name": "random_16", "is_biased_choice":false,"side_choice": "RIGHT", "trial_number":37,"observed_reward":0,"unobserved_reward":0},{"RT":3141,"time": "2018-08-15 03:59:56pm", "schedule_type": "STATIC", "schedule_name": "random_16", "is_biased_choice":false,"side_choice": "RIGHT", "trial_number":38,"observed_reward":1,"unobserved_reward":0},{"RT":3129,"time": "2018-08-15 03:59:59pm", "schedule_type": "STATIC", "schedule_name": "random_16", "is_biased_choice":false,"side_choice": "RIGHT", "trial_number":39,"observed_reward":0,"unobserved_reward":0},{"RT":2480,"time": "2018-08-15 04:00:02pm", "schedule_type": "STATIC", "schedule_name": "random_16", "is_biased_choice":true,"side_choice": "LEFT", "trial_number":40,"observed_reward":0,"unobserved_reward":1},{"RT":2659,"time": "2018-08-15 04:00:04pm", "schedule_type": "STATIC", "schedule_name": "random_16", "is_biased_choice":false,"side_choice": "RIGHT", "trial_number":41,"observed_reward":0,"unobserved_reward":0},{"RT":2764,"time": "2018-08-15 04:00:07pm", "schedule_type": "STATIC", "schedule_name": "random_16", "is_biased_choice":false,"side_choice": "RIGHT", "trial_number":42,"observed_reward":0,"unobserved_reward":0},{"RT":2422,"time": "2018-08-15 04:00:09pm", "schedule_type": "STATIC", "schedule_name": "random_16", "is_biased_choice":true,"side_choice": "LEFT", "trial_number":43,"observed_reward":1,"unobserved_reward":1},{"RT":2356,"time": "2018-08-15 04:00:12pm", "schedule_type": "STATIC", "schedule_name": "random_16", "is_biased_choice":true,"side_choice": "LEFT", "trial_number":44,"observed_reward":0,"unobserved_reward":0},{"RT":2696,"time": "2018-08-15 04:00:14pm", "schedule_type": "STATIC", "schedule_name": "random_16", "is_biased_choice":false,"side_choice": "RIGHT", "trial_number":45,"observed_reward":0,"unobserved_reward":0},{"RT":2506,"time": "2018-08-15 04:00:17pm", "schedule_type": "STATIC", "schedule_name": "random_16", "is_biased_choice":false,"side_choice": "RIGHT", "trial_number":46,"observed_reward":0,"unobserved_reward":0},{"RT":2557,"time": "2018-08-15 04:00:19pm", "schedule_type": "STATIC", "schedule_name": "random_16", "is_biased_choice":true,"side_choice": "LEFT", "trial_number":47,"observed_reward":0,"unobserved_reward":1},{"RT":2427,"time": "2018-08-15 04:00:22pm", "schedule_type": "STATIC", "schedule_name": "random_16", "is_biased_choice":false,"side_choice": "RIGHT", "trial_number":48,"observed_reward":0,"unobserved_reward":0},{"RT":2331,"time": "2018-08-15 04:00:24pm", "schedule_type": "STATIC", "schedule_name": "random_16", "is_biased_choice":true,"side_choice": "LEFT", "trial_number":49,"observed_reward":1,"unobserved_reward":1},{"RT":2471,"time": "2018-08-15 04:00:27pm", "schedule_type": "STATIC", "schedule_name": "random_16", "is_biased_choice":true,"side_choice": "LEFT", "trial_number":50,"observed_reward":0,"unobserved_reward":0},{"RT":2638,"time": "2018-08-15 04:00:29pm", "schedule_type": "STATIC", "schedule_name": "random_16", "is_biased_choice":true,"side_choice": "LEFT", "trial_number":51,"observed_reward":0,"unobserved_reward":1},{"RT":3920,"time": "2018-08-15 04:00:33pm", "schedule_type": "STATIC", "schedule_name": "random_16", "is_biased_choice":false,"side_choice": "RIGHT", "trial_number":52,"observed_reward":1,"unobserved_reward":0},{"RT":4185,"time": "2018-08-15 04:00:38pm", "schedule_type": "STATIC", "schedule_name": "random_16", "is_biased_choice":false,"side_choice": "RIGHT", "trial_number":53,"observed_reward":0,"unobserved_reward":0},{"RT":2648,"time": "2018-08-15 04:00:40pm", "schedule_type": "STATIC", "schedule_name": "random_16", "is_biased_choice":false,"side_choice": "RIGHT", "trial_number":54,"observed_reward":0,"unobserved_reward":0},{"RT":2294,"time": "2018-08-15 04:00:42pm", "schedule_type": "STATIC", "schedule_name": "random_16", "is_biased_choice":true,"side_choice": "LEFT", "trial_number":55,"observed_reward":1,"unobserved_reward":0},{"RT":2398,"time": "2018-08-15 04:00:45pm", "schedule_type": "STATIC", "schedule_name": "random_16", "is_biased_choice":true,"side_choice": "LEFT", "trial_number":56,"observed_reward":1,"unobserved_reward":0},{"RT":2385,"time": "2018-08-15 04:00:47pm", "schedule_type": "STATIC", "schedule_name": "random_16", "is_biased_choice":true,"side_choice": "LEFT", "trial_number":57,"observed_reward":1,"unobserved_reward":1},{"RT":2246,"time": "2018-08-15 04:00:49pm", "schedule_type": "STATIC", "schedule_name": "random_16", "is_biased_choice":true,"side_choice": "LEFT", "trial_number":58,"observed_reward":1,"unobserved_reward":0},{"RT":2341,"time": "2018-08-15 04:00:52pm", "schedule_type": "STATIC", "schedule_name": "random_16", "is_biased_choice":true,"side_choice": "LEFT", "trial_number":59,"observed_reward":0,"unobserved_reward":0},{"RT":2741,"time": "2018-08-15 04:00:55pm", "schedule_type": "STATIC", "schedule_name": "random_16", "is_biased_choice":false,"side_choice": "RIGHT", "trial_number":60,"observed_reward":1,"unobserved_reward":0},{"RT":2351,"time": "2018-08-15 04:00:57pm", "schedule_type": "STATIC", "schedule_name": "random_16", "is_biased_choice":false,"side_choice": "RIGHT", "trial_number":61,"observed_reward":1,"unobserved_reward":0},{"RT":2298,"time": "2018-08-15 04:00:59pm", "schedule_type": "STATIC", "schedule_name": "random_16", "is_biased_choice":false,"side_choice": "RIGHT", "trial_number":62,"observed_reward":0,"unobserved_reward":1},{"RT":2621,"time": "2018-08-15 04:01:02pm", "schedule_type": "STATIC", "schedule_name": "random_16", "is_biased_choice":false,"side_choice": "RIGHT", "trial_number":63,"observed_reward":0,"unobserved_reward":0},{"RT":2568,"time": "2018-08-15 04:01:04pm", "schedule_type": "STATIC", "schedule_name": "random_16", "is_biased_choice":true,"side_choice": "LEFT", "trial_number":64,"observed_reward":0,"unobserved_reward":0},{"RT":2495,"time": "2018-08-15 04:01:07pm", "schedule_type": "STATIC", "schedule_name": "random_16", "is_biased_choice":true,"side_choice": "LEFT", "trial_number":65,"observed_reward":0,"unobserved_reward":0},{"RT":2430,"time": "2018-08-15 04:01:09pm", "schedule_type": "STATIC", "schedule_name": "random_16", "is_biased_choice":true,"side_choice": "LEFT", "trial_number":66,"observed_reward":0,"unobserved_reward":0},{"RT":2295,"time": "2018-08-15 04:01:12pm", "schedule_type": "STATIC", "schedule_name": "random_16", "is_biased_choice":true,"side_choice": "LEFT", "trial_number":67,"observed_reward":0,"unobserved_reward":0},{"RT":2354,"time": "2018-08-15 04:01:14pm", "schedule_type": "STATIC", "schedule_name": "random_16", "is_biased_choice":false,"side_choice": "RIGHT", "trial_number":68,"observed_reward":0,"unobserved_reward":0},{"RT":2324,"time": "2018-08-15 04:01:16pm", "schedule_type": "STATIC", "schedule_name": "random_16", "is_biased_choice":true,"side_choice": "LEFT", "trial_number":69,"observed_reward":0,"unobserved_reward":0},{"RT":2478,"time": "2018-08-15 04:01:19pm", "schedule_type": "STATIC", "schedule_name": "random_16", "is_biased_choice":false,"side_choice": "RIGHT", "trial_number":70,"observed_reward":0,"unobserved_reward":0},{"RT":2328,"time": "2018-08-15 04:01:21pm", "schedule_type": "STATIC", "schedule_name": "random_16", "is_biased_choice":false,"side_choice": "RIGHT", "trial_number":71,"observed_reward":0,"unobserved_reward":1},{"RT":2656,"time": "2018-08-15 04:01:24pm", "schedule_type": "STATIC", "schedule_name": "random_16", "is_biased_choice":false,"side_choice": "RIGHT", "trial_number":72,"observed_reward":0,"unobserved_reward":1},{"RT":2309,"time": "2018-08-15 04:01:26pm", "schedule_type": "STATIC", "schedule_name": "random_16", "is_biased_choice":true,"side_choice": "LEFT", "trial_number":73,"observed_reward":0,"unobserved_reward":0},{"RT":2384,"time": "2018-08-15 04:01:28pm", "schedule_type": "STATIC", "schedule_name": "random_16", "is_biased_choice":false,"side_choice": "RIGHT", "trial_number":74,"observed_reward":1,"unobserved_reward":0},{"RT":2589,"time": "2018-08-15 04:01:31pm", "schedule_type": "STATIC", "schedule_name": "random_16", "is_biased_choice":false,"side_choice": "RIGHT", "trial_number":75,"observed_reward":0,"unobserved_reward":1},{"RT":2333,"time": "2018-08-15 04:01:33pm", "schedule_type": "STATIC", "schedule_name": "random_16", "is_biased_choice":true,"side_choice": "LEFT", "trial_number":76,"observed_reward":0,"unobserved_reward":0},{"RT":2445,"time": "2018-08-15 04:01:36pm", "schedule_type": "STATIC", "schedule_name": "random_16", "is_biased_choice":true,"side_choice": "LEFT", "trial_number":77,"observed_reward":1,"unobserved_reward":0},{"RT":2386,"time": "2018-08-15 04:01:39pm", "schedule_type": "STATIC", "schedule_name": "random_16", "is_biased_choice":true,"side_choice": "LEFT", "trial_number":78,"observed_reward":0,"unobserved_reward":1},{"RT":2400,"time": "2018-08-15 04:01:41pm", "schedule_type": "STATIC", "schedule_name": "random_16", "is_biased_choice":true,"side_choice": "LEFT", "trial_number":79,"observed_reward":0,"unobserved_reward":1},{"RT":2307,"time": "2018-08-15 04:01:43pm", "schedule_type": "STATIC", "schedule_name": "random_16", "is_biased_choice":false,"side_choice": "RIGHT", "trial_number":80,"observed_reward":0,"unobserved_reward":0},{"RT":2310,"time": "2018-08-15 04:01:45pm", "schedule_type": "STATIC", "schedule_name": "random_16", "is_biased_choice":true,"side_choice": "LEFT", "trial_number":81,"observed_reward":0,"unobserved_reward":0},{"RT":2365,"time": "2018-08-15 04:01:48pm", "schedule_type": "STATIC", "schedule_name": "random_16", "is_biased_choice":false,"side_choice": "RIGHT", "trial_number":82,"observed_reward":0,"unobserved_reward":1},{"RT":2440,"time": "2018-08-15 04:01:50pm", "schedule_type": "STATIC", "schedule_name": "random_16", "is_biased_choice":true,"side_choice": "LEFT", "trial_number":83,"observed_reward":0,"unobserved_reward":0},{"RT":2147,"time": "2018-08-15 04:01:52pm", "schedule_type": "STATIC", "schedule_name": "random_16", "is_biased_choice":true,"side_choice": "LEFT", "trial_number":84,"observed_reward":0,"unobserved_reward":0},{"RT":2737,"time": "2018-08-15 04:01:55pm", "schedule_type": "STATIC", "schedule_name": "random_16", "is_biased_choice":false,"side_choice": "RIGHT", "trial_number":85,"observed_reward":0,"unobserved_reward":1},{"RT":2272,"time": "2018-08-15 04:01:57pm", "schedule_type": "STATIC", "schedule_name": "random_16", "is_biased_choice":false,"side_choice": "RIGHT", "trial_number":86,"observed_reward":0,"unobserved_reward":0},{"RT":2812,"time": "2018-08-15 04:02:00pm", "schedule_type": "STATIC", "schedule_name": "random_16", "is_biased_choice":false,"side_choice": "RIGHT", "trial_number":87,"observed_reward":0,"unobserved_reward":0},{"RT":2663,"time": "2018-08-15 04:02:03pm", "schedule_type": "STATIC", "schedule_name": "random_16", "is_biased_choice":false,"side_choice": "RIGHT", "trial_number":88,"observed_reward":0,"unobserved_reward":0},{"RT":2394,"time": "2018-08-15 04:02:05pm", "schedule_type": "STATIC", "schedule_name": "random_16", "is_biased_choice":true,"side_choice": "LEFT", "trial_number":89,"observed_reward":1,"unobserved_reward":1},{"RT":2386,"time": "2018-08-15 04:02:07pm", "schedule_type": "STATIC", "schedule_name": "random_16", "is_biased_choice":true,"side_choice": "LEFT", "trial_number":90,"observed_reward":1,"unobserved_reward":0},{"RT":2687,"time": "2018-08-15 04:02:10pm", "schedule_type": "STATIC", "schedule_name": "random_16", "is_biased_choice":true,"side_choice": "LEFT", "trial_number":91,"observed_reward":0,"unobserved_reward":0},{"RT":2836,"time": "2018-08-15 04:02:13pm", "schedule_type": "STATIC", "schedule_name": "random_16", "is_biased_choice":true,"side_choice": "LEFT", "trial_number":92,"observed_reward":0,"unobserved_reward":0},{"RT":2488,"time": "2018-08-15 04:02:15pm", "schedule_type": "STATIC", "schedule_name": "random_16", "is_biased_choice":true,"side_choice": "LEFT", "trial_number":93,"observed_reward":0,"unobserved_reward":0},{"RT":2434,"time": "2018-08-15 04:02:18pm", "schedule_type": "STATIC", "schedule_name": "random_16", "is_biased_choice":false,"side_choice": "RIGHT", "trial_number":94,"observed_reward":0,"unobserved_reward":1},{"RT":2316,"time": "2018-08-15 04:02:20pm", "schedule_type": "STATIC", "schedule_name": "random_16", "is_biased_choice":false,"side_choice": "RIGHT", "trial_number":95,"observed_reward":0,"unobserved_reward":0},{"RT":2330,"time": "2018-08-15 04:02:22pm", "schedule_type": "STATIC", "schedule_name": "random_16", "is_biased_choice":false,"side_choice": "RIGHT", "trial_number":96,"observed_reward":0,"unobserved_reward":1},{"RT":2360,"time": "2018-08-15 04:02:25pm", "schedule_type": "STATIC", "schedule_name": "random_16", "is_biased_choice":false,"side_choice": "RIGHT", "trial_number":97,"observed_reward":1,"unobserved_reward":0},{"RT":2333,"time": "2018-08-15 04:02:27pm", "schedule_type": "STATIC", "schedule_name": "random_16", "is_biased_choice":false,"side_choice": "RIGHT", "trial_number":98,"observed_reward":1,"unobserved_reward":1},{"RT":2952,"time": "2018-08-15 04:02:30pm", "schedule_type": "STATIC", "schedule_name": "random_16", "is_biased_choice":false,"side_choice": "RIGHT", "trial_number":99,"observed_reward":1,"unobserved_reward":1},