[{"RT":5939,"time": "2018-08-15 03:27:32pm", "schedule_type": "STATIC", "schedule_name": "random_10", "is_biased_choice":true,"side_choice": "RIGHT", "trial_number":0,"observed_reward":1,"unobserved_reward":1},{"RT":3463,"time": "2018-08-15 03:27:36pm", "schedule_type": "STATIC", "schedule_name": "random_10", "is_biased_choice":true,"side_choice": "RIGHT", "trial_number":1,"observed_reward":0,"unobserved_reward":0},{"RT":2769,"time": "2018-08-15 03:27:38pm", "schedule_type": "STATIC", "schedule_name": "random_10", "is_biased_choice":true,"side_choice": "RIGHT", "trial_number":2,"observed_reward":1,"unobserved_reward":0},{"RT":2984,"time": "2018-08-15 03:27:41pm", "schedule_type": "STATIC", "schedule_name": "random_10", "is_biased_choice":false,"side_choice": "LEFT", "trial_number":3,"observed_reward":0,"unobserved_reward":0},{"RT":2888,"time": "2018-08-15 03:27:44pm", "schedule_type": "STATIC", "schedule_name": "random_10", "is_biased_choice":true,"side_choice": "RIGHT", "trial_number":4,"observed_reward":0,"unobserved_reward":0},{"RT":3304,"time": "2018-08-15 03:27:48pm", "schedule_type": "STATIC", "schedule_name": "random_10", "is_biased_choice":true,"side_choice": "RIGHT", "trial_number":5,"observed_reward":0,"unobserved_reward":0},{"RT":2728,"time": "2018-08-15 03:27:50pm", "schedule_type": "STATIC", "schedule_name": "random_10", "is_biased_choice":false,"side_choice": "LEFT", "trial_number":6,"observed_reward":1,"unobserved_reward":1},{"RT":2790,"time": "2018-08-15 03:27:53pm", "schedule_type": "STATIC", "schedule_name": "random_10", "is_biased_choice":false,"side_choice": "LEFT", "trial_number":7,"observed_reward":0,"unobserved_reward":1},{"RT":2457,"time": "2018-08-15 03:27:56pm", "schedule_type": "STATIC", "schedule_name": "random_10", "is_biased_choice":true,"side_choice": "RIGHT", "trial_number":8,"observed_reward":0,"unobserved_reward":0},{"RT":2393,"time": "2018-08-15 03:27:58pm", "schedule_type": "STATIC", "schedule_name": "random_10", "is_biased_choice":true,"side_choice": "RIGHT", "trial_number":9,"observed_reward":0,"unobserved_reward":0},{"RT":2984,"time": "2018-08-15 03:28:01pm", "schedule_type": "STATIC", "schedule_name": "random_10", "is_biased_choice":false,"side_choice": "LEFT", "trial_number":10,"observed_reward":0,"unobserved_reward":1},{"RT":2560,"time": "2018-08-15 03:28:03pm", "schedule_type": "STATIC", "schedule_name": "random_10", "is_biased_choice":true,"side_choice": "RIGHT", "trial_number":11,"observed_reward":0,"unobserved_reward":1},{"RT":2352,"time": "2018-08-15 03:28:07pm", "schedule_type": "STATIC", "schedule_name": "random_10", "is_biased_choice":true,"side_choice": "RIGHT", "trial_number":12,"observed_reward":1,"unobserved_reward":0},{"RT":4680,"time": "2018-08-15 03:28:10pm", "schedule_type": "STATIC", "schedule_name": "random_10", "is_biased_choice":true,"side_choice": "RIGHT", "trial_number":13,"observed_reward":0,"unobserved_reward":1},{"RT":3785,"time": "2018-08-15 03:28:15pm", "schedule_type": "STATIC", "schedule_name": "random_10", "is_biased_choice":true,"side_choice": "RIGHT", "trial_number":14,"observed_reward":0,"unobserved_reward":1},{"RT":4519,"time": "2018-08-15 03:28:19pm", "schedule_type": "STATIC", "schedule_name": "random_10", "is_biased_choice":false,"side_choice": "LEFT", "trial_number":15,"observed_reward":0,"unobserved_reward":0},{"RT":3656,"time": "2018-08-15 03:28:23pm", "schedule_type": "STATIC", "schedule_name": "random_10", "is_biased_choice":false,"side_choice": "LEFT", "trial_number":16,"observed_reward":0,"unobserved_reward":0},{"RT":3359,"time": "2018-08-15 03:28:26pm", "schedule_type": "STATIC", "schedule_name": "random_10", "is_biased_choice":true,"side_choice": "RIGHT", "trial_number":17,"observed_reward":1,"unobserved_reward":1},{"RT":3352,"time": "2018-08-15 03:28:29pm", "schedule_type": "STATIC", "schedule_name": "random_10", "is_biased_choice":true,"side_choice": "RIGHT", "trial_number":18,"observed_reward":0,"unobserved_reward":1},{"RT":3466,"time": "2018-08-15 03:28:33pm", "schedule_type": "STATIC", "schedule_name": "random_10", "is_biased_choice":false,"side_choice": "LEFT", "trial_number":19,"observed_reward":1,"unobserved_reward":0},{"RT":2855,"time": "2018-08-15 03:28:36pm", "schedule_type": "STATIC", "schedule_name": "random_10", "is_biased_choice":true,"side_choice": "RIGHT", "trial_number":20,"observed_reward":0,"unobserved_reward":0},{"RT":2993,"time": "2018-08-15 03:28:38pm", "schedule_type": "STATIC", "schedule_name": "random_10", "is_biased_choice":false,"side_choice": "LEFT", "trial_number":21,"observed_reward":0,"unobserved_reward":0},{"RT":2863,"time": "2018-08-15 03:28:41pm", "schedule_type": "STATIC", "schedule_name": "random_10", "is_biased_choice":true,"side_choice": "RIGHT", "trial_number":22,"observed_reward":0,"unobserved_reward":0},{"RT":2457,"time": "2018-08-15 03:28:44pm", "schedule_type": "STATIC", "schedule_name": "random_10", "is_biased_choice":true,"side_choice": "RIGHT", "trial_number":23,"observed_reward":0,"unobserved_reward":0},{"RT":2470,"time": "2018-08-15 03:28:47pm", "schedule_type": "STATIC", "schedule_name": "random_10", "is_biased_choice":false,"side_choice": "LEFT", "trial_number":24,"observed_reward":0,"unobserved_reward":0},{"RT":2649,"time": "2018-08-15 03:28:49pm", "schedule_type": "STATIC", "schedule_name": "random_10", "is_biased_choice":false,"side_choice": "LEFT", "trial_number":25,"observed_reward":0,"unobserved_reward":1},{"RT":2601,"time": "2018-08-15 03:28:52pm", "schedule_type": "STATIC", "schedule_name": "random_10", "is_biased_choice":false,"side_choice": "LEFT", "trial_number":26,"observed_reward":0,"unobserved_reward":0},{"RT":2648,"time": "2018-08-15 03:28:54pm", "schedule_type": "STATIC", "schedule_name": "random_10", "is_biased_choice":true,"side_choice": "RIGHT", "trial_number":27,"observed_reward":0,"unobserved_reward":1},{"RT":2463,"time": "2018-08-15 03:28:57pm", "schedule_type": "STATIC", "schedule_name": "random_10", "is_biased_choice":true,"side_choice": "RIGHT", "trial_number":28,"observed_reward":0,"unobserved_reward":0},{"RT":2633,"time": "2018-08-15 03:28:59pm", "schedule_type": "STATIC", "schedule_name": "random_10", "is_biased_choice":false,"side_choice": "LEFT", "trial_number":29,"observed_reward":0,"unobserved_reward":0},{"RT":2646,"time": "2018-08-15 03:29:02pm", "schedule_type": "STATIC", "schedule_name": "random_10", "is_biased_choice":false,"side_choice": "LEFT", "trial_number":30,"observed_reward":1,"unobserved_reward":0},{"RT":2834,"time": "2018-08-15 03:29:05pm", "schedule_type": "STATIC", "schedule_name": "random_10", "is_biased_choice":false,"side_choice": "LEFT", "trial_number":31,"observed_reward":1,"unobserved_reward":1},{"RT":2584,"time": "2018-08-15 03:29:08pm", "schedule_type": "STATIC", "schedule_name": "random_10", "is_biased_choice":false,"side_choice": "LEFT", "trial_number":32,"observed_reward":0,"unobserved_reward":1},{"RT":2631,"time": "2018-08-15 03:29:10pm", "schedule_type": "STATIC", "schedule_name": "random_10", "is_biased_choice":false,"side_choice": "LEFT", "trial_number":33,"observed_reward":0,"unobserved_reward":0},{"RT":2457,"time": "2018-08-15 03:29:14pm", "schedule_type": "STATIC", "schedule_name": "random_10", "is_biased_choice":false,"side_choice": "LEFT", "trial_number":34,"observed_reward":0,"unobserved_reward":0},{"RT":4408,"time": "2018-08-15 03:29:17pm", "schedule_type": "STATIC", "schedule_name": "random_10", "is_biased_choice":false,"side_choice": "LEFT", "trial_number":35,"observed_reward":1,"unobserved_reward":0},{"RT":3783,"time": "2018-08-15 03:29:21pm", "schedule_type": "STATIC", "schedule_name": "random_10", "is_biased_choice":true,"side_choice": "RIGHT", "trial_number":36,"observed_reward":0,"unobserved_reward":0},{"RT":3033,"time": "2018-08-15 03:29:24pm", "schedule_type": "STATIC", "schedule_name": "random_10", "is_biased_choice":false,"side_choice": "LEFT", "trial_number":37,"observed_reward":0,"unobserved_reward":0},{"RT":2503,"time": "2018-08-15 03:29:27pm", "schedule_type": "STATIC", "schedule_name": "random_10", "is_biased_choice":true,"side_choice": "RIGHT", "trial_number":38,"observed_reward":1,"unobserved_reward":0},{"RT":2705,"time": "2018-08-15 03:29:29pm", "schedule_type": "STATIC", "schedule_name": "random_10", "is_biased_choice":true,"side_choice": "RIGHT", "trial_number":39,"observed_reward":0,"unobserved_reward":1},{"RT":2623,"time": "2018-08-15 03:29:31pm", "schedule_type": "STATIC", "schedule_name": "random_10", "is_biased_choice":false,"side_choice": "LEFT", "trial_number":40,"observed_reward":0,"unobserved_reward":0},{"RT":2456,"time": "2018-08-15 03:29:34pm", "schedule_type": "STATIC", "schedule_name": "random_10", "is_biased_choice":true,"side_choice": "RIGHT", "trial_number":41,"observed_reward":0,"unobserved_reward":0},{"RT":2471,"time": "2018-08-15 03:29:37pm", "schedule_type": "STATIC", "schedule_name": "random_10", "is_biased_choice":true,"side_choice": "RIGHT", "trial_number":42,"observed_reward":0,"unobserved_reward":1},{"RT":3178,"time": "2018-08-15 03:29:40pm", "schedule_type": "STATIC", "schedule_name": "random_10", "is_biased_choice":true,"side_choice": "RIGHT", "trial_number":43,"observed_reward":0,"unobserved_reward":0},{"RT":2480,"time": "2018-08-15 03:29:42pm", "schedule_type": "STATIC", "schedule_name": "random_10", "is_biased_choice":false,"side_choice": "LEFT", "trial_number":44,"observed_reward":1,"unobserved_reward":0},{"RT":2576,"time": "2018-08-15 03:29:45pm", "schedule_type": "STATIC", "schedule_name": "random_10", "is_biased_choice":false,"side_choice": "LEFT", "trial_number":45,"observed_reward":1,"unobserved_reward":1},{"RT":2575,"time": "2018-08-15 03:29:48pm", "schedule_type": "STATIC", "schedule_name": "random_10", "is_biased_choice":false,"side_choice": "LEFT", "trial_number":46,"observed_reward":0,"unobserved_reward":0},{"RT":2441,"time": "2018-08-15 03:29:50pm", "schedule_type": "STATIC", "schedule_name": "random_10", "is_biased_choice":true,"side_choice": "RIGHT", "trial_number":47,"observed_reward":1,"unobserved_reward":0},{"RT":2511,"time": "2018-08-15 03:29:52pm", "schedule_type": "STATIC", "schedule_name": "random_10", "is_biased_choice":true,"side_choice": "RIGHT", "trial_number":48,"observed_reward":0,"unobserved_reward":0},{"RT":2488,"time": "2018-08-15 03:29:55pm", "schedule_type": "STATIC", "schedule_name": "random_10", "is_biased_choice":false,"side_choice": "LEFT", "trial_number":49,"observed_reward":0,"unobserved_reward":0},{"RT":2545,"time": "2018-08-15 03:29:58pm", "schedule_type": "STATIC", "schedule_name": "random_10", "is_biased_choice":true,"side_choice": "RIGHT", "trial_number":50,"observed_reward":0,"unobserved_reward":0},{"RT":2425,"time": "2018-08-15 03:30:00pm", "schedule_type": "STATIC", "schedule_name": "random_10", "is_biased_choice":false,"side_choice": "LEFT", "trial_number":51,"observed_reward":0,"unobserved_reward":0},{"RT":2454,"time": "2018-08-15 03:30:02pm", "schedule_type": "STATIC", "schedule_name": "random_10", "is_biased_choice":false,"side_choice": "LEFT", "trial_number":52,"observed_reward":0,"unobserved_reward":0},{"RT":2448,"time": "2018-08-15 03:30:05pm", "schedule_type": "STATIC", "schedule_name": "random_10", "is_biased_choice":true,"side_choice": "RIGHT", "trial_number":53,"observed_reward":0,"unobserved_reward":0},{"RT":2352,"time": "2018-08-15 03:30:08pm", "schedule_type": "STATIC", "schedule_name": "random_10", "is_biased_choice":false,"side_choice": "LEFT", "trial_number":54,"observed_reward":1,"unobserved_reward":0},{"RT":2760,"time": "2018-08-15 03:30:10pm", "schedule_type": "STATIC", "schedule_name": "random_10", "is_biased_choice":false,"side_choice": "LEFT", "trial_number":55,"observed_reward":0,"unobserved_reward":0},{"RT":2679,"time": "2018-08-15 03:30:12pm", "schedule_type": "STATIC", "schedule_name": "random_10", "is_biased_choice":true,"side_choice": "RIGHT", "trial_number":56,"observed_reward":1,"unobserved_reward":0},{"RT":2882,"time": "2018-08-15 03:30:15pm", "schedule_type": "STATIC", "schedule_name": "random_10", "is_biased_choice":true,"side_choice": "RIGHT", "trial_number":57,"observed_reward":1,"unobserved_reward":0},{"RT":2592,"time": "2018-08-15 03:30:18pm", "schedule_type": "STATIC", "schedule_name": "random_10", "is_biased_choice":true,"side_choice": "RIGHT", "trial_number":58,"observed_reward":0,"unobserved_reward":0},{"RT":2551,"time": "2018-08-15 03:30:20pm", "schedule_type": "STATIC", "schedule_name": "random_10", "is_biased_choice":false,"side_choice": "LEFT", "trial_number":59,"observed_reward":0,"unobserved_reward":1},{"RT":2360,"time": "2018-08-15 03:30:23pm", "schedule_type": "STATIC", "schedule_name": "random_10", "is_biased_choice":false,"side_choice": "LEFT", "trial_number":60,"observed_reward":0,"unobserved_reward":0},{"RT":2576,"time": "2018-08-15 03:30:25pm", "schedule_type": "STATIC", "schedule_name": "random_10", "is_biased_choice":true,"side_choice": "RIGHT", "trial_number":61,"observed_reward":1,"unobserved_reward":0},{"RT":2433,"time": "2018-08-15 03:30:28pm", "schedule_type": "STATIC", "schedule_name": "random_10", "is_biased_choice":true,"side_choice": "RIGHT", "trial_number":62,"observed_reward":1,"unobserved_reward":0},{"RT":2494,"time": "2018-08-15 03:30:30pm", "schedule_type": "STATIC", "schedule_name": "random_10", "is_biased_choice":true,"side_choice": "RIGHT", "trial_number":63,"observed_reward":0,"unobserved_reward":0},{"RT":2425,"time": "2018-08-15 03:30:33pm", "schedule_type": "STATIC", "schedule_name": "random_10", "is_biased_choice":false,"side_choice": "LEFT", "trial_number":64,"observed_reward":0,"unobserved_reward":1},{"RT":2480,"time": "2018-08-15 03:30:35pm", "schedule_type": "STATIC", "schedule_name": "random_10", "is_biased_choice":false,"side_choice": "LEFT", "trial_number":65,"observed_reward":1,"unobserved_reward":0},{"RT":2552,"time": "2018-08-15 03:30:38pm", "schedule_type": "STATIC", "schedule_name": "random_10", "is_biased_choice":false,"side_choice": "LEFT", "trial_number":66,"observed_reward":0,"unobserved_reward":1},{"RT":2544,"time": "2018-08-15 03:30:40pm", "schedule_type": "STATIC", "schedule_name": "random_10", "is_biased_choice":true,"side_choice": "RIGHT", "trial_number":67,"observed_reward":1,"unobserved_reward":0},{"RT":2488,"time": "2018-08-15 03:30:43pm", "schedule_type": "STATIC", "schedule_name": "random_10", "is_biased_choice":true,"side_choice": "RIGHT", "trial_number":68,"observed_reward":0,"unobserved_reward":0},{"RT":2480,"time": "2018-08-15 03:30:45pm", "schedule_type": "STATIC", "schedule_name": "random_10", "is_biased_choice":false,"side_choice": "LEFT", "trial_number":69,"observed_reward":1,"unobserved_reward":0},{"RT":2567,"time": "2018-08-15 03:30:48pm", "schedule_type": "STATIC", "schedule_name": "random_10", "is_biased_choice":false,"side_choice": "LEFT", "trial_number":70,"observed_reward":0,"unobserved_reward":0},{"RT":2409,"time": "2018-08-15 03:30:50pm", "schedule_type": "STATIC", "schedule_name": "random_10", "is_biased_choice":true,"side_choice": "RIGHT", "trial_number":71,"observed_reward":0,"unobserved_reward":0},{"RT":2424,"time": "2018-08-15 03:30:53pm", "schedule_type": "STATIC", "schedule_name": "random_10", "is_biased_choice":true,"side_choice": "RIGHT", "trial_number":72,"observed_reward":0,"unobserved_reward":0},{"RT":2680,"time": "2018-08-15 03:30:55pm", "schedule_type": "STATIC", "schedule_name": "random_10", "is_biased_choice":false,"side_choice": "LEFT", "trial_number":73,"observed_reward":0,"unobserved_reward":0},{"RT":2400,"time": "2018-08-15 03:30:58pm", "schedule_type": "STATIC", "schedule_name": "random_10", "is_biased_choice":true,"side_choice": "RIGHT", "trial_number":74,"observed_reward":0,"unobserved_reward":0},{"RT":2616,"time": "2018-08-15 03:31:00pm", "schedule_type": "STATIC", "schedule_name": "random_10", "is_biased_choice":false,"side_choice": "LEFT", "trial_number":75,"observed_reward":0,"unobserved_reward":0},{"RT":2537,"time": "2018-08-15 03:31:03pm", "schedule_type": "STATIC", "schedule_name": "random_10", "is_biased_choice":true,"side_choice": "RIGHT", "trial_number":76,"observed_reward":0,"unobserved_reward":0},{"RT":10480,"time": "2018-08-15 03:31:14pm", "schedule_type": "STATIC", "schedule_name": "random_10", "is_biased_choice":true,"side_choice": "RIGHT", "trial_number":77,"observed_reward":0,"unobserved_reward":0},{"RT":2288,"time": "2018-08-15 03:31:16pm", "schedule_type": "STATIC", "schedule_name": "random_10", "is_biased_choice":true,"side_choice": "RIGHT", "trial_number":78,"observed_reward":0,"unobserved_reward":0},{"RT":2240,"time": "2018-08-15 03:31:18pm", "schedule_type": "STATIC", "schedule_name": "random_10", "is_biased_choice":false,"side_choice": "LEFT", "trial_number":79,"observed_reward":0,"unobserved_reward":1},{"RT":2264,"time": "2018-08-15 03:31:20pm", "schedule_type": "STATIC", "schedule_name": "random_10", "is_biased_choice":true,"side_choice": "RIGHT", "trial_number":80,"observed_reward":0,"unobserved_reward":1},{"RT":2391,"time": "2018-08-15 03:31:22pm", "schedule_type": "STATIC", "schedule_name": "random_10", "is_biased_choice":false,"side_choice": "LEFT", "trial_number":81,"observed_reward":0,"unobserved_reward":0},{"RT":2416,"time": "2018-08-15 03:31:25pm", "schedule_type": "STATIC", "schedule_name": "random_10", "is_biased_choice":true,"side_choice": "RIGHT", "trial_number":82,"observed_reward":0,"unobserved_reward":0},{"RT":2297,"time": "2018-08-15 03:31:28pm", "schedule_type": "STATIC", "schedule_name": "random_10", "is_biased_choice":false,"side_choice": "LEFT", "trial_number":83,"observed_reward":1,"unobserved_reward":1},{"RT":2535,"time": "2018-08-15 03:31:30pm", "schedule_type": "STATIC", "schedule_name": "random_10", "is_biased_choice":true,"side_choice": "RIGHT", "trial_number":84,"observed_reward":0,"unobserved_reward":0},{"RT":2345,"time": "2018-08-15 03:31:32pm", "schedule_type": "STATIC", "schedule_name": "random_10", "is_biased_choice":false,"side_choice": "LEFT", "trial_number":85,"observed_reward":0,"unobserved_reward":0},{"RT":2472,"time": "2018-08-15 03:31:35pm", "schedule_type": "STATIC", "schedule_name": "random_10", "is_biased_choice":true,"side_choice": "RIGHT", "trial_number":86,"observed_reward":1,"unobserved_reward":0},{"RT":2440,"time": "2018-08-15 03:31:37pm", "schedule_type": "STATIC", "schedule_name": "random_10", "is_biased_choice":true,"side_choice": "RIGHT", "trial_number":87,"observed_reward":0,"unobserved_reward":1},{"RT":2430,"time": "2018-08-15 03:31:39pm", "schedule_type": "STATIC", "schedule_name": "random_10", "is_biased_choice":false,"side_choice": "LEFT", "trial_number":88,"observed_reward":1,"unobserved_reward":0},{"RT":2522,"time": "2018-08-15 03:31:42pm", "schedule_type": "STATIC", "schedule_name": "random_10", "is_biased_choice":false,"side_choice": "LEFT", "trial_number":89,"observed_reward":0,"unobserved_reward":0},{"RT":3120,"time": "2018-08-15 03:31:46pm", "schedule_type": "STATIC", "schedule_name": "random_10", "is_biased_choice":true,"side_choice": "RIGHT", "trial_number":90,"observed_reward":0,"unobserved_reward":1},{"RT":2519,"time": "2018-08-15 03:31:48pm", "schedule_type": "STATIC", "schedule_name": "random_10", "is_biased_choice":false,"side_choice": "LEFT", "trial_number":91,"observed_reward":0,"unobserved_reward":0},{"RT":2488,"time": "2018-08-15 03:31:50pm", "schedule_type": "STATIC", "schedule_name": "random_10", "is_biased_choice":true,"side_choice": "RIGHT", "trial_number":92,"observed_reward":0,"unobserved_reward":0},{"RT":3048,"time": "2018-08-15 03:31:54pm", "schedule_type": "STATIC", "schedule_name": "random_10", "is_biased_choice":false,"side_choice": "LEFT", "trial_number":93,"observed_reward":0,"unobserved_reward":0},{"RT":2271,"time": "2018-08-15 03:31:56pm", "schedule_type": "STATIC", "schedule_name": "random_10", "is_biased_choice":false,"side_choice": "LEFT", "trial_number":94,"observed_reward":1,"unobserved_reward":0},{"RT":2600,"time": "2018-08-15 03:31:58pm", "schedule_type": "STATIC", "schedule_name": "random_10", "is_biased_choice":true,"side_choice": "RIGHT", "trial_number":95,"observed_reward":0,"unobserved_reward":0},{"RT":2561,"time": "2018-08-15 03:32:01pm", "schedule_type": "STATIC", "schedule_name": "random_10", "is_biased_choice":false,"side_choice": "LEFT", "trial_number":96,"observed_reward":0,"unobserved_reward":0},{"RT":2465,"time": "2018-08-15 03:32:03pm", "schedule_type": "STATIC", "schedule_name": "random_10", "is_biased_choice":true,"side_choice": "RIGHT", "trial_number":97,"observed_reward":0,"unobserved_reward":0},{"RT":2335,"time": "2018-08-15 03:32:06pm", "schedule_type": "STATIC", "schedule_name": "random_10", "is_biased_choice":true,"side_choice": "RIGHT", "trial_number":98,"observed_reward":1,"unobserved_reward":0},{"RT":3304,"time": "2018-08-15 03:32:09pm", "schedule_type": "STATIC", "schedule_name": "random_10", "is_biased_choice":true,"side_choice": "RIGHT", "trial_number":99,"observed_reward":0,"unobserved_reward":0},