[{"RT":2979,"time": "2018-08-15 01:42:57pm", "schedule_type": "STATIC", "schedule_name": "random_10", "is_biased_choice":false,"side_choice": "LEFT", "trial_number":0,"observed_reward":1,"unobserved_reward":1},{"RT":3600,"time": "2018-08-15 01:43:01pm", "schedule_type": "STATIC", "schedule_name": "random_10", "is_biased_choice":false,"side_choice": "LEFT", "trial_number":1,"observed_reward":0,"unobserved_reward":0},{"RT":3097,"time": "2018-08-15 01:43:04pm", "schedule_type": "STATIC", "schedule_name": "random_10", "is_biased_choice":true,"side_choice": "RIGHT", "trial_number":2,"observed_reward":1,"unobserved_reward":0},{"RT":2590,"time": "2018-08-15 01:43:06pm", "schedule_type": "STATIC", "schedule_name": "random_10", "is_biased_choice":false,"side_choice": "LEFT", "trial_number":3,"observed_reward":0,"unobserved_reward":0},{"RT":2449,"time": "2018-08-15 01:43:09pm", "schedule_type": "STATIC", "schedule_name": "random_10", "is_biased_choice":false,"side_choice": "LEFT", "trial_number":4,"observed_reward":0,"unobserved_reward":0},{"RT":2569,"time": "2018-08-15 01:43:11pm", "schedule_type": "STATIC", "schedule_name": "random_10", "is_biased_choice":true,"side_choice": "RIGHT", "trial_number":5,"observed_reward":0,"unobserved_reward":0},{"RT":2376,"time": "2018-08-15 01:43:14pm", "schedule_type": "STATIC", "schedule_name": "random_10", "is_biased_choice":false,"side_choice": "LEFT", "trial_number":6,"observed_reward":1,"unobserved_reward":1},{"RT":2655,"time": "2018-08-15 01:43:16pm", "schedule_type": "STATIC", "schedule_name": "random_10", "is_biased_choice":false,"side_choice": "LEFT", "trial_number":7,"observed_reward":0,"unobserved_reward":1},{"RT":3178,"time": "2018-08-15 01:43:20pm", "schedule_type": "STATIC", "schedule_name": "random_10", "is_biased_choice":false,"side_choice": "LEFT", "trial_number":8,"observed_reward":0,"unobserved_reward":0},{"RT":2688,"time": "2018-08-15 01:43:22pm", "schedule_type": "STATIC", "schedule_name": "random_10", "is_biased_choice":true,"side_choice": "RIGHT", "trial_number":9,"observed_reward":0,"unobserved_reward":0},{"RT":2783,"time": "2018-08-15 01:43:25pm", "schedule_type": "STATIC", "schedule_name": "random_10", "is_biased_choice":true,"side_choice": "RIGHT", "trial_number":10,"observed_reward":1,"unobserved_reward":0},{"RT":2873,"time": "2018-08-15 01:43:28pm", "schedule_type": "STATIC", "schedule_name": "random_10", "is_biased_choice":false,"side_choice": "LEFT", "trial_number":11,"observed_reward":1,"unobserved_reward":0},{"RT":3319,"time": "2018-08-15 01:43:31pm", "schedule_type": "STATIC", "schedule_name": "random_10", "is_biased_choice":true,"side_choice": "RIGHT", "trial_number":12,"observed_reward":1,"unobserved_reward":0},{"RT":2784,"time": "2018-08-15 01:43:34pm", "schedule_type": "STATIC", "schedule_name": "random_10", "is_biased_choice":true,"side_choice": "RIGHT", "trial_number":13,"observed_reward":0,"unobserved_reward":1},{"RT":2359,"time": "2018-08-15 01:43:36pm", "schedule_type": "STATIC", "schedule_name": "random_10", "is_biased_choice":false,"side_choice": "LEFT", "trial_number":14,"observed_reward":1,"unobserved_reward":0},{"RT":2423,"time": "2018-08-15 01:43:39pm", "schedule_type": "STATIC", "schedule_name": "random_10", "is_biased_choice":false,"side_choice": "LEFT", "trial_number":15,"observed_reward":0,"unobserved_reward":0},{"RT":2393,"time": "2018-08-15 01:43:41pm", "schedule_type": "STATIC", "schedule_name": "random_10", "is_biased_choice":true,"side_choice": "RIGHT", "trial_number":16,"observed_reward":0,"unobserved_reward":0},{"RT":2289,"time": "2018-08-15 01:43:43pm", "schedule_type": "STATIC", "schedule_name": "random_10", "is_biased_choice":false,"side_choice": "LEFT", "trial_number":17,"observed_reward":1,"unobserved_reward":1},{"RT":2615,"time": "2018-08-15 01:43:46pm", "schedule_type": "STATIC", "schedule_name": "random_10", "is_biased_choice":false,"side_choice": "LEFT", "trial_number":18,"observed_reward":1,"unobserved_reward":0},{"RT":2473,"time": "2018-08-15 01:43:48pm", "schedule_type": "STATIC", "schedule_name": "random_10", "is_biased_choice":true,"side_choice": "RIGHT", "trial_number":19,"observed_reward":0,"unobserved_reward":1},{"RT":2472,"time": "2018-08-15 01:43:51pm", "schedule_type": "STATIC", "schedule_name": "random_10", "is_biased_choice":false,"side_choice": "LEFT", "trial_number":20,"observed_reward":0,"unobserved_reward":0},{"RT":2336,"time": "2018-08-15 01:43:53pm", "schedule_type": "STATIC", "schedule_name": "random_10", "is_biased_choice":true,"side_choice": "RIGHT", "trial_number":21,"observed_reward":0,"unobserved_reward":0},{"RT":2272,"time": "2018-08-15 01:43:56pm", "schedule_type": "STATIC", "schedule_name": "random_10", "is_biased_choice":true,"side_choice": "RIGHT", "trial_number":22,"observed_reward":0,"unobserved_reward":0},{"RT":2479,"time": "2018-08-15 01:43:58pm", "schedule_type": "STATIC", "schedule_name": "random_10", "is_biased_choice":false,"side_choice": "LEFT", "trial_number":23,"observed_reward":0,"unobserved_reward":0},{"RT":2313,"time": "2018-08-15 01:44:00pm", "schedule_type": "STATIC", "schedule_name": "random_10", "is_biased_choice":true,"side_choice": "RIGHT", "trial_number":24,"observed_reward":0,"unobserved_reward":0},{"RT":2343,"time": "2018-08-15 01:44:03pm", "schedule_type": "STATIC", "schedule_name": "random_10", "is_biased_choice":false,"side_choice": "LEFT", "trial_number":25,"observed_reward":0,"unobserved_reward":1},{"RT":2297,"time": "2018-08-15 01:44:05pm", "schedule_type": "STATIC", "schedule_name": "random_10", "is_biased_choice":true,"side_choice": "RIGHT", "trial_number":26,"observed_reward":0,"unobserved_reward":0},{"RT":2576,"time": "2018-08-15 01:44:08pm", "schedule_type": "STATIC", "schedule_name": "random_10", "is_biased_choice":false,"side_choice": "LEFT", "trial_number":27,"observed_reward":1,"unobserved_reward":0},{"RT":2472,"time": "2018-08-15 01:44:10pm", "schedule_type": "STATIC", "schedule_name": "random_10", "is_biased_choice":false,"side_choice": "LEFT", "trial_number":28,"observed_reward":0,"unobserved_reward":0},{"RT":2334,"time": "2018-08-15 01:44:12pm", "schedule_type": "STATIC", "schedule_name": "random_10", "is_biased_choice":false,"side_choice": "LEFT", "trial_number":29,"observed_reward":0,"unobserved_reward":0},{"RT":2288,"time": "2018-08-15 01:44:15pm", "schedule_type": "STATIC", "schedule_name": "random_10", "is_biased_choice":true,"side_choice": "RIGHT", "trial_number":30,"observed_reward":0,"unobserved_reward":1},{"RT":2384,"time": "2018-08-15 01:44:17pm", "schedule_type": "STATIC", "schedule_name": "random_10", "is_biased_choice":false,"side_choice": "LEFT", "trial_number":31,"observed_reward":1,"unobserved_reward":1},{"RT":2360,"time": "2018-08-15 01:44:19pm", "schedule_type": "STATIC", "schedule_name": "random_10", "is_biased_choice":false,"side_choice": "LEFT", "trial_number":32,"observed_reward":0,"unobserved_reward":1},{"RT":2383,"time": "2018-08-15 01:44:23pm", "schedule_type": "STATIC", "schedule_name": "random_10", "is_biased_choice":true,"side_choice": "RIGHT", "trial_number":33,"observed_reward":0,"unobserved_reward":0},{"RT":5184,"time": "2018-08-15 01:44:27pm", "schedule_type": "STATIC", "schedule_name": "random_10", "is_biased_choice":false,"side_choice": "LEFT", "trial_number":34,"observed_reward":0,"unobserved_reward":0},{"RT":3121,"time": "2018-08-15 01:44:30pm", "schedule_type": "STATIC", "schedule_name": "random_10", "is_biased_choice":true,"side_choice": "RIGHT", "trial_number":35,"observed_reward":0,"unobserved_reward":1},{"RT":2360,"time": "2018-08-15 01:44:32pm", "schedule_type": "STATIC", "schedule_name": "random_10", "is_biased_choice":false,"side_choice": "LEFT", "trial_number":36,"observed_reward":0,"unobserved_reward":0},{"RT":2303,"time": "2018-08-15 01:44:35pm", "schedule_type": "STATIC", "schedule_name": "random_10", "is_biased_choice":false,"side_choice": "LEFT", "trial_number":37,"observed_reward":0,"unobserved_reward":0},{"RT":2528,"time": "2018-08-15 01:44:37pm", "schedule_type": "STATIC", "schedule_name": "random_10", "is_biased_choice":true,"side_choice": "RIGHT", "trial_number":38,"observed_reward":1,"unobserved_reward":0},{"RT":2817,"time": "2018-08-15 01:44:40pm", "schedule_type": "STATIC", "schedule_name": "random_10", "is_biased_choice":false,"side_choice": "LEFT", "trial_number":39,"observed_reward":1,"unobserved_reward":0},{"RT":2448,"time": "2018-08-15 01:44:43pm", "schedule_type": "STATIC", "schedule_name": "random_10", "is_biased_choice":true,"side_choice": "RIGHT", "trial_number":40,"observed_reward":0,"unobserved_reward":0},{"RT":2384,"time": "2018-08-15 01:44:45pm", "schedule_type": "STATIC", "schedule_name": "random_10", "is_biased_choice":true,"side_choice": "RIGHT", "trial_number":41,"observed_reward":0,"unobserved_reward":0},{"RT":2360,"time": "2018-08-15 01:44:47pm", "schedule_type": "STATIC", "schedule_name": "random_10", "is_biased_choice":false,"side_choice": "LEFT", "trial_number":42,"observed_reward":1,"unobserved_reward":0},{"RT":2360,"time": "2018-08-15 01:44:50pm", "schedule_type": "STATIC", "schedule_name": "random_10", "is_biased_choice":false,"side_choice": "LEFT", "trial_number":43,"observed_reward":0,"unobserved_reward":0},{"RT":2231,"time": "2018-08-15 01:44:52pm", "schedule_type": "STATIC", "schedule_name": "random_10", "is_biased_choice":true,"side_choice": "RIGHT", "trial_number":44,"observed_reward":0,"unobserved_reward":1},{"RT":9279,"time": "2018-08-15 01:45:01pm", "schedule_type": "STATIC", "schedule_name": "random_10", "is_biased_choice":true,"side_choice": "RIGHT", "trial_number":45,"observed_reward":1,"unobserved_reward":1},{"RT":3153,"time": "2018-08-15 01:45:04pm", "schedule_type": "STATIC", "schedule_name": "random_10", "is_biased_choice":true,"side_choice": "RIGHT", "trial_number":46,"observed_reward":0,"unobserved_reward":0},{"RT":2504,"time": "2018-08-15 01:45:07pm", "schedule_type": "STATIC", "schedule_name": "random_10", "is_biased_choice":false,"side_choice": "LEFT", "trial_number":47,"observed_reward":0,"unobserved_reward":1},{"RT":2393,"time": "2018-08-15 01:45:09pm", "schedule_type": "STATIC", "schedule_name": "random_10", "is_biased_choice":true,"side_choice": "RIGHT", "trial_number":48,"observed_reward":0,"unobserved_reward":0},{"RT":3979,"time": "2018-08-15 01:45:13pm", "schedule_type": "STATIC", "schedule_name": "random_10", "is_biased_choice":true,"side_choice": "RIGHT", "trial_number":49,"observed_reward":0,"unobserved_reward":0},{"RT":2727,"time": "2018-08-15 01:45:16pm", "schedule_type": "STATIC", "schedule_name": "random_10", "is_biased_choice":false,"side_choice": "LEFT", "trial_number":50,"observed_reward":0,"unobserved_reward":0},{"RT":2865,"time": "2018-08-15 01:45:19pm", "schedule_type": "STATIC", "schedule_name": "random_10", "is_biased_choice":true,"side_choice": "RIGHT", "trial_number":51,"observed_reward":0,"unobserved_reward":0},{"RT":2689,"time": "2018-08-15 01:45:22pm", "schedule_type": "STATIC", "schedule_name": "random_10", "is_biased_choice":false,"side_choice": "LEFT", "trial_number":52,"observed_reward":0,"unobserved_reward":0},{"RT":2638,"time": "2018-08-15 01:45:25pm", "schedule_type": "STATIC", "schedule_name": "random_10", "is_biased_choice":true,"side_choice": "RIGHT", "trial_number":53,"observed_reward":0,"unobserved_reward":0},{"RT":3193,"time": "2018-08-15 01:45:27pm", "schedule_type": "STATIC", "schedule_name": "random_10", "is_biased_choice":false,"side_choice": "LEFT", "trial_number":54,"observed_reward":1,"unobserved_reward":0},{"RT":3312,"time": "2018-08-15 01:45:31pm", "schedule_type": "STATIC", "schedule_name": "random_10", "is_biased_choice":false,"side_choice": "LEFT", "trial_number":55,"observed_reward":0,"unobserved_reward":0},{"RT":2303,"time": "2018-08-15 01:45:33pm", "schedule_type": "STATIC", "schedule_name": "random_10", "is_biased_choice":true,"side_choice": "RIGHT", "trial_number":56,"observed_reward":1,"unobserved_reward":0},{"RT":2512,"time": "2018-08-15 01:45:35pm", "schedule_type": "STATIC", "schedule_name": "random_10", "is_biased_choice":true,"side_choice": "RIGHT", "trial_number":57,"observed_reward":1,"unobserved_reward":0},{"RT":2417,"time": "2018-08-15 01:45:38pm", "schedule_type": "STATIC", "schedule_name": "random_10", "is_biased_choice":true,"side_choice": "RIGHT", "trial_number":58,"observed_reward":0,"unobserved_reward":0},{"RT":2392,"time": "2018-08-15 01:45:40pm", "schedule_type": "STATIC", "schedule_name": "random_10", "is_biased_choice":false,"side_choice": "LEFT", "trial_number":59,"observed_reward":0,"unobserved_reward":1},{"RT":2423,"time": "2018-08-15 01:45:43pm", "schedule_type": "STATIC", "schedule_name": "random_10", "is_biased_choice":true,"side_choice": "RIGHT", "trial_number":60,"observed_reward":0,"unobserved_reward":0},{"RT":2336,"time": "2018-08-15 01:45:45pm", "schedule_type": "STATIC", "schedule_name": "random_10", "is_biased_choice":false,"side_choice": "LEFT", "trial_number":61,"observed_reward":0,"unobserved_reward":1},{"RT":2424,"time": "2018-08-15 01:45:47pm", "schedule_type": "STATIC", "schedule_name": "random_10", "is_biased_choice":false,"side_choice": "LEFT", "trial_number":62,"observed_reward":0,"unobserved_reward":1},{"RT":2656,"time": "2018-08-15 01:45:50pm", "schedule_type": "STATIC", "schedule_name": "random_10", "is_biased_choice":false,"side_choice": "LEFT", "trial_number":63,"observed_reward":0,"unobserved_reward":0},{"RT":2432,"time": "2018-08-15 01:45:53pm", "schedule_type": "STATIC", "schedule_name": "random_10", "is_biased_choice":true,"side_choice": "RIGHT", "trial_number":64,"observed_reward":1,"unobserved_reward":0},{"RT":5361,"time": "2018-08-15 01:45:58pm", "schedule_type": "STATIC", "schedule_name": "random_10", "is_biased_choice":true,"side_choice": "RIGHT", "trial_number":65,"observed_reward":0,"unobserved_reward":1},{"RT":2919,"time": "2018-08-15 01:46:01pm", "schedule_type": "STATIC", "schedule_name": "random_10", "is_biased_choice":true,"side_choice": "RIGHT", "trial_number":66,"observed_reward":1,"unobserved_reward":0},{"RT":2768,"time": "2018-08-15 01:46:04pm", "schedule_type": "STATIC", "schedule_name": "random_10", "is_biased_choice":true,"side_choice": "RIGHT", "trial_number":67,"observed_reward":1,"unobserved_reward":0},{"RT":2472,"time": "2018-08-15 01:46:06pm", "schedule_type": "STATIC", "schedule_name": "random_10", "is_biased_choice":false,"side_choice": "LEFT", "trial_number":68,"observed_reward":0,"unobserved_reward":0},{"RT":2432,"time": "2018-08-15 01:46:08pm", "schedule_type": "STATIC", "schedule_name": "random_10", "is_biased_choice":true,"side_choice": "RIGHT", "trial_number":69,"observed_reward":0,"unobserved_reward":1},{"RT":2368,"time": "2018-08-15 01:46:11pm", "schedule_type": "STATIC", "schedule_name": "random_10", "is_biased_choice":false,"side_choice": "LEFT", "trial_number":70,"observed_reward":0,"unobserved_reward":0},{"RT":3302,"time": "2018-08-15 01:46:14pm", "schedule_type": "STATIC", "schedule_name": "random_10", "is_biased_choice":true,"side_choice": "RIGHT", "trial_number":71,"observed_reward":0,"unobserved_reward":0},{"RT":2671,"time": "2018-08-15 01:46:17pm", "schedule_type": "STATIC", "schedule_name": "random_10", "is_biased_choice":false,"side_choice": "LEFT", "trial_number":72,"observed_reward":0,"unobserved_reward":0},{"RT":2777,"time": "2018-08-15 01:46:20pm", "schedule_type": "STATIC", "schedule_name": "random_10", "is_biased_choice":true,"side_choice": "RIGHT", "trial_number":73,"observed_reward":0,"unobserved_reward":0},{"RT":2767,"time": "2018-08-15 01:46:22pm", "schedule_type": "STATIC", "schedule_name": "random_10", "is_biased_choice":false,"side_choice": "LEFT", "trial_number":74,"observed_reward":0,"unobserved_reward":0},{"RT":2497,"time": "2018-08-15 01:46:27pm", "schedule_type": "STATIC", "schedule_name": "random_10", "is_biased_choice":true,"side_choice": "RIGHT", "trial_number":75,"observed_reward":0,"unobserved_reward":0},{"RT":3423,"time": "2018-08-15 01:46:28pm", "schedule_type": "STATIC", "schedule_name": "random_10", "is_biased_choice":true,"side_choice": "RIGHT", "trial_number":76,"observed_reward":0,"unobserved_reward":0},{"RT":3216,"time": "2018-08-15 01:46:32pm", "schedule_type": "STATIC", "schedule_name": "random_10", "is_biased_choice":true,"side_choice": "RIGHT", "trial_number":77,"observed_reward":0,"unobserved_reward":0},{"RT":2345,"time": "2018-08-15 01:46:34pm", "schedule_type": "STATIC", "schedule_name": "random_10", "is_biased_choice":true,"side_choice": "RIGHT", "trial_number":78,"observed_reward":0,"unobserved_reward":0},{"RT":2343,"time": "2018-08-15 01:46:36pm", "schedule_type": "STATIC", "schedule_name": "random_10", "is_biased_choice":false,"side_choice": "LEFT", "trial_number":79,"observed_reward":0,"unobserved_reward":1},{"RT":2472,"time": "2018-08-15 01:46:39pm", "schedule_type": "STATIC", "schedule_name": "random_10", "is_biased_choice":false,"side_choice": "LEFT", "trial_number":80,"observed_reward":1,"unobserved_reward":0},{"RT":2953,"time": "2018-08-15 01:46:42pm", "schedule_type": "STATIC", "schedule_name": "random_10", "is_biased_choice":true,"side_choice": "RIGHT", "trial_number":81,"observed_reward":0,"unobserved_reward":0},{"RT":2824,"time": "2018-08-15 01:46:44pm", "schedule_type": "STATIC", "schedule_name": "random_10", "is_biased_choice":false,"side_choice": "LEFT", "trial_number":82,"observed_reward":0,"unobserved_reward":0},{"RT":2343,"time": "2018-08-15 01:46:47pm", "schedule_type": "STATIC", "schedule_name": "random_10", "is_biased_choice":true,"side_choice": "RIGHT", "trial_number":83,"observed_reward":1,"unobserved_reward":1},{"RT":3872,"time": "2018-08-15 01:46:51pm", "schedule_type": "STATIC", "schedule_name": "random_10", "is_biased_choice":true,"side_choice": "RIGHT", "trial_number":84,"observed_reward":0,"unobserved_reward":0},{"RT":2569,"time": "2018-08-15 01:46:53pm", "schedule_type": "STATIC", "schedule_name": "random_10", "is_biased_choice":false,"side_choice": "LEFT", "trial_number":85,"observed_reward":0,"unobserved_reward":0},{"RT":2279,"time": "2018-08-15 01:46:55pm", "schedule_type": "STATIC", "schedule_name": "random_10", "is_biased_choice":true,"side_choice": "RIGHT", "trial_number":86,"observed_reward":1,"unobserved_reward":0},{"RT":2973,"time": "2018-08-15 01:46:59pm", "schedule_type": "STATIC", "schedule_name": "random_10", "is_biased_choice":true,"side_choice": "RIGHT", "trial_number":87,"observed_reward":0,"unobserved_reward":1},{"RT":2556,"time": "2018-08-15 01:47:01pm", "schedule_type": "STATIC", "schedule_name": "random_10", "is_biased_choice":false,"side_choice": "LEFT", "trial_number":88,"observed_reward":1,"unobserved_reward":0},{"RT":3175,"time": "2018-08-15 01:47:05pm", "schedule_type": "STATIC", "schedule_name": "random_10", "is_biased_choice":true,"side_choice": "RIGHT", "trial_number":89,"observed_reward":0,"unobserved_reward":0},{"RT":2528,"time": "2018-08-15 01:47:07pm", "schedule_type": "STATIC", "schedule_name": "random_10", "is_biased_choice":false,"side_choice": "LEFT", "trial_number":90,"observed_reward":1,"unobserved_reward":0},{"RT":2432,"time": "2018-08-15 01:47:09pm", "schedule_type": "STATIC", "schedule_name": "random_10", "is_biased_choice":false,"side_choice": "LEFT", "trial_number":91,"observed_reward":0,"unobserved_reward":0},{"RT":2281,"time": "2018-08-15 01:47:11pm", "schedule_type": "STATIC", "schedule_name": "random_10", "is_biased_choice":true,"side_choice": "RIGHT", "trial_number":92,"observed_reward":0,"unobserved_reward":0},{"RT":2403,"time": "2018-08-15 01:47:14pm", "schedule_type": "STATIC", "schedule_name": "random_10", "is_biased_choice":false,"side_choice": "LEFT", "trial_number":93,"observed_reward":0,"unobserved_reward":0},{"RT":2679,"time": "2018-08-15 01:47:16pm", "schedule_type": "STATIC", "schedule_name": "random_10", "is_biased_choice":true,"side_choice": "RIGHT", "trial_number":94,"observed_reward":0,"unobserved_reward":1},{"RT":2872,"time": "2018-08-15 01:47:19pm", "schedule_type": "STATIC", "schedule_name": "random_10", "is_biased_choice":true,"side_choice": "RIGHT", "trial_number":95,"observed_reward":0,"unobserved_reward":0},{"RT":2457,"time": "2018-08-15 01:47:22pm", "schedule_type": "STATIC", "schedule_name": "random_10", "is_biased_choice":false,"side_choice": "LEFT", "trial_number":96,"observed_reward":0,"unobserved_reward":0},{"RT":2319,"time": "2018-08-15 01:47:24pm", "schedule_type": "STATIC", "schedule_name": "random_10", "is_biased_choice":false,"side_choice": "LEFT", "trial_number":97,"observed_reward":0,"unobserved_reward":0},{"RT":2383,"time": "2018-08-15 01:47:28pm", "schedule_type": "STATIC", "schedule_name": "random_10", "is_biased_choice":false,"side_choice": "LEFT", "trial_number":98,"observed_reward":0,"unobserved_reward":1},{"RT":3282,"time": "2018-08-15 01:47:30pm", "schedule_type": "STATIC", "schedule_name": "random_10", "is_biased_choice":false,"side_choice": "LEFT", "trial_number":99,"observed_reward":0,"unobserved_reward":0},