trial_number, time, schedule_type, schedule_name, is_biased_choice, side_choice, RT, observed_reward, unobserved_reward, biased_reward, unbiased_reward
0,2018-08-15 01:42:37pm, STATIC, random_4, true, RIGHT, 8515, 1, 0, 1, 0
1,2018-08-15 01:42:42pm, STATIC, random_4, true, RIGHT, 5672, 0, 0, 0, 0
2,2018-08-15 01:42:47pm, STATIC, random_4, false, LEFT, 4769, 0, 1, 1, 0
3,2018-08-15 01:42:51pm, STATIC, random_4, false, LEFT, 3727, 0, 1, 1, 0
4,2018-08-15 01:43:01pm, STATIC, random_4, true, RIGHT, 9729, 0, 0, 0, 0
5,2018-08-15 01:43:09pm, STATIC, random_4, true, RIGHT, 8758, 0, 0, 0, 0
6,2018-08-15 01:43:15pm, STATIC, random_4, false, LEFT, 5985, 0, 1, 1, 0
7,2018-08-15 01:43:20pm, STATIC, random_4, true, RIGHT, 4784, 0, 1, 0, 1
8,2018-08-15 01:43:53pm, STATIC, random_4, false, LEFT, 33177, 1, 0, 0, 1
9,2018-08-15 01:44:04pm, STATIC, random_4, true, RIGHT, 10671, 0, 0, 0, 0
10,2018-08-15 01:44:09pm, STATIC, random_4, false, LEFT, 4680, 1, 1, 1, 1
11,2018-08-15 01:44:13pm, STATIC, random_4, true, RIGHT, 4177, 0, 0, 0, 0
12,2018-08-15 01:44:17pm, STATIC, random_4, true, RIGHT, 3795, 1, 1, 1, 1
13,2018-08-15 01:44:23pm, STATIC, random_4, false, LEFT, 4484, 0, 1, 1, 0
14,2018-08-15 01:44:26pm, STATIC, random_4, false, LEFT, 5274, 0, 0, 0, 0
15,2018-08-15 01:44:30pm, STATIC, random_4, true, RIGHT, 3839, 0, 0, 0, 0
16,2018-08-15 01:44:36pm, STATIC, random_4, true, RIGHT, 5338, 0, 0, 0, 0
17,2018-08-15 01:44:39pm, STATIC, random_4, false, LEFT, 3783, 0, 0, 0, 0
18,2018-08-15 01:44:43pm, STATIC, random_4, true, RIGHT, 3736, 0, 0, 0, 0
19,2018-08-15 01:44:47pm, STATIC, random_4, false, LEFT, 4136, 1, 0, 0, 1
20,2018-08-15 01:44:53pm, STATIC, random_4, true, RIGHT, 5896, 0, 0, 0, 0
21,2018-08-15 01:44:57pm, STATIC, random_4, false, LEFT, 4208, 0, 1, 1, 0
22,2018-08-15 01:45:03pm, STATIC, random_4, true, RIGHT, 6040, 0, 1, 0, 1
23,2018-08-15 01:45:07pm, STATIC, random_4, false, LEFT, 3688, 0, 1, 1, 0
24,2018-08-15 01:45:14pm, STATIC, random_4, true, RIGHT, 6792, 0, 0, 0, 0
25,2018-08-15 01:45:20pm, STATIC, random_4, false, LEFT, 6055, 1, 1, 1, 1
26,2018-08-15 01:45:25pm, STATIC, random_4, false, LEFT, 4826, 0, 0, 0, 0
27,2018-08-15 01:45:29pm, STATIC, random_4, true, RIGHT, 4399, 0, 0, 0, 0
28,2018-08-15 01:45:33pm, STATIC, random_4, true, RIGHT, 3905, 1, 0, 1, 0
29,2018-08-15 01:45:38pm, STATIC, random_4, false, LEFT, 5064, 0, 0, 0, 0
30,2018-08-15 01:45:41pm, STATIC, random_4, false, LEFT, 3398, 0, 0, 0, 0
31,2018-08-15 01:45:45pm, STATIC, random_4, true, RIGHT, 3577, 0, 0, 0, 0
32,2018-08-15 01:45:49pm, STATIC, random_4, true, RIGHT, 3881, 0, 0, 0, 0
33,2018-08-15 01:45:53pm, STATIC, random_4, true, RIGHT, 3567, 1, 0, 1, 0
34,2018-08-15 01:45:56pm, STATIC, random_4, false, LEFT, 3753, 0, 1, 1, 0
35,2018-08-15 01:46:04pm, STATIC, random_4, true, RIGHT, 8091, 0, 0, 0, 0
36,2018-08-15 01:46:08pm, STATIC, random_4, true, RIGHT, 3556, 0, 0, 0, 0
37,2018-08-15 01:46:13pm, STATIC, random_4, true, RIGHT, 4912, 0, 1, 0, 1
38,2018-08-15 01:46:17pm, STATIC, random_4, true, RIGHT, 3904, 0, 1, 0, 1
39,2018-08-15 01:46:20pm, STATIC, random_4, true, RIGHT, 3201, 1, 0, 1, 0
40,2018-08-15 01:46:25pm, STATIC, random_4, false, LEFT, 3598, 0, 1, 1, 0
41,2018-08-15 01:46:29pm, STATIC, random_4, false, LEFT, 5018, 0, 1, 1, 0
42,2018-08-15 01:46:32pm, STATIC, random_4, false, LEFT, 3136, 1, 0, 0, 1
43,2018-08-15 01:46:36pm, STATIC, random_4, true, RIGHT, 4479, 0, 0, 0, 0
44,2018-08-15 01:46:41pm, STATIC, random_4, true, RIGHT, 4457, 0, 1, 0, 1
45,2018-08-15 01:46:44pm, STATIC, random_4, true, RIGHT, 3849, 0, 1, 0, 1
46,2018-08-15 01:46:48pm, STATIC, random_4, true, RIGHT, 3407, 0, 1, 0, 1
47,2018-08-15 01:46:52pm, STATIC, random_4, true, RIGHT, 3672, 0, 0, 0, 0
48,2018-08-15 01:46:55pm, STATIC, random_4, false, LEFT, 3760, 0, 0, 0, 0
49,2018-08-15 01:46:59pm, STATIC, random_4, false, LEFT, 3784, 0, 0, 0, 0
50,2018-08-15 01:47:03pm, STATIC, random_4, true, RIGHT, 3544, 0, 0, 0, 0
51,2018-08-15 01:47:07pm, STATIC, random_4, true, RIGHT, 4050, 0, 0, 0, 0
52,2018-08-15 01:47:11pm, STATIC, random_4, true, RIGHT, 4718, 0, 0, 0, 0
53,2018-08-15 01:47:15pm, STATIC, random_4, false, LEFT, 3553, 0, 0, 0, 0
54,2018-08-15 01:47:18pm, STATIC, random_4, false, LEFT, 3215, 0, 0, 0, 0
55,2018-08-15 01:47:22pm, STATIC, random_4, false, LEFT, 3768, 0, 0, 0, 0
56,2018-08-15 01:47:27pm, STATIC, random_4, false, LEFT, 3513, 0, 0, 0, 0
57,2018-08-15 01:47:29pm, STATIC, random_4, false, LEFT, 3895, 0, 1, 1, 0
58,2018-08-15 01:47:33pm, STATIC, random_4, false, LEFT, 3737, 0, 0, 0, 0
59,2018-08-15 01:47:36pm, STATIC, random_4, true, RIGHT, 3359, 0, 1, 0, 1
60,2018-08-15 01:47:42pm, STATIC, random_4, true, RIGHT, 5091, 1, 1, 1, 1
61,2018-08-15 01:47:46pm, STATIC, random_4, false, LEFT, 4142, 0, 0, 0, 0
62,2018-08-15 01:47:50pm, STATIC, random_4, true, RIGHT, 3816, 1, 1, 1, 1
63,2018-08-15 01:47:53pm, STATIC, random_4, true, RIGHT, 3423, 0, 0, 0, 0
64,2018-08-15 01:47:56pm, STATIC, random_4, true, RIGHT, 3498, 0, 0, 0, 0
65,2018-08-15 01:48:00pm, STATIC, random_4, true, RIGHT, 3439, 0, 0, 0, 0
66,2018-08-15 01:48:03pm, STATIC, random_4, true, RIGHT, 3632, 0, 1, 0, 1
67,2018-08-15 01:48:07pm, STATIC, random_4, false, LEFT, 3463, 0, 0, 0, 0
68,2018-08-15 01:48:11pm, STATIC, random_4, true, RIGHT, 3737, 1, 0, 1, 0
69,2018-08-15 01:48:17pm, STATIC, random_4, false, LEFT, 5984, 0, 0, 0, 0
70,2018-08-15 01:48:25pm, STATIC, random_4, true, RIGHT, 8609, 0, 1, 0, 1
71,2018-08-15 01:48:29pm, STATIC, random_4, true, RIGHT, 3416, 0, 0, 0, 0
72,2018-08-15 01:48:33pm, STATIC, random_4, true, RIGHT, 4225, 0, 1, 0, 1
73,2018-08-15 01:48:36pm, STATIC, random_4, true, RIGHT, 3094, 0, 0, 0, 0
74,2018-08-15 01:48:39pm, STATIC, random_4, true, RIGHT, 3369, 0, 0, 0, 0
75,2018-08-15 01:48:43pm, STATIC, random_4, false, LEFT, 3096, 0, 0, 0, 0
76,2018-08-15 01:48:46pm, STATIC, random_4, false, LEFT, 3568, 0, 0, 0, 0
77,2018-08-15 01:48:50pm, STATIC, random_4, true, RIGHT, 3607, 0, 0, 0, 0
78,2018-08-15 01:48:53pm, STATIC, random_4, true, RIGHT, 3539, 0, 0, 0, 0
79,2018-08-15 01:48:56pm, STATIC, random_4, true, RIGHT, 3197, 0, 0, 0, 0
80,2018-08-15 01:49:01pm, STATIC, random_4, true, RIGHT, 4144, 0, 0, 0, 0
81,2018-08-15 01:49:04pm, STATIC, random_4, false, LEFT, 3081, 1, 1, 1, 1
82,2018-08-15 01:49:08pm, STATIC, random_4, true, RIGHT, 4591, 1, 0, 1, 0
83,2018-08-15 01:49:12pm, STATIC, random_4, false, LEFT, 3344, 0, 0, 0, 0
84,2018-08-15 01:49:15pm, STATIC, random_4, true, RIGHT, 3353, 0, 1, 0, 1
85,2018-08-15 01:49:19pm, STATIC, random_4, true, RIGHT, 3734, 0, 0, 0, 0
86,2018-08-15 01:49:22pm, STATIC, random_4, false, LEFT, 3353, 0, 0, 0, 0
87,2018-08-15 01:49:26pm, STATIC, random_4, false, LEFT, 3631, 0, 0, 0, 0
88,2018-08-15 01:49:29pm, STATIC, random_4, true, RIGHT, 3674, 1, 0, 1, 0
89,2018-08-15 01:49:34pm, STATIC, random_4, false, LEFT, 5000, 0, 0, 0, 0
90,2018-08-15 01:49:37pm, STATIC, random_4, true, RIGHT, 3023, 0, 0, 0, 0
91,2018-08-15 01:49:40pm, STATIC, random_4, false, LEFT, 2936, 0, 0, 0, 0
92,2018-08-15 01:49:44pm, STATIC, random_4, true, RIGHT, 3544, 0, 1, 0, 1
93,2018-08-15 01:49:47pm, STATIC, random_4, true, RIGHT, 3159, 1, 1, 1, 1
94,2018-08-15 01:49:51pm, STATIC, random_4, true, RIGHT, 3769, 1, 0, 1, 0
95,2018-08-15 01:49:54pm, STATIC, random_4, false, LEFT, 3440, 0, 0, 0, 0
96,2018-08-15 01:49:57pm, STATIC, random_4, true, RIGHT, 3064, 0, 0, 0, 0
97,2018-08-15 01:50:01pm, STATIC, random_4, true, RIGHT, 3608, 0, 1, 0, 1
98,2018-08-15 01:50:04pm, STATIC, random_4, true, RIGHT, 3560, 0, 1, 0, 1
