trial_number, time, schedule_type, schedule_name, is_biased_choice, side_choice, RT, observed_reward, unobserved_reward, biased_reward, unbiased_reward
0,2018-08-15 03:28:10pm, STATIC, random_4, true, RIGHT, 2421, 1, 0, 1, 0
1,2018-08-15 03:28:15pm, STATIC, random_4, false, LEFT, 4600, 0, 0, 0, 0
2,2018-08-15 03:28:19pm, STATIC, random_4, true, RIGHT, 4162, 1, 0, 1, 0
3,2018-08-15 03:28:26pm, STATIC, random_4, true, RIGHT, 6649, 1, 0, 1, 0
4,2018-08-15 03:28:32pm, STATIC, random_4, false, LEFT, 6737, 0, 0, 0, 0
5,2018-08-15 03:28:35pm, STATIC, random_4, true, RIGHT, 2953, 0, 0, 0, 0
6,2018-08-15 03:28:38pm, STATIC, random_4, false, LEFT, 2895, 0, 1, 1, 0
7,2018-08-15 03:28:42pm, STATIC, random_4, false, LEFT, 3613, 1, 0, 0, 1
8,2018-08-15 03:28:45pm, STATIC, random_4, false, LEFT, 2961, 1, 0, 0, 1
9,2018-08-15 03:28:47pm, STATIC, random_4, false, LEFT, 2776, 0, 0, 0, 0
10,2018-08-15 03:28:50pm, STATIC, random_4, false, LEFT, 2749, 1, 1, 1, 1
11,2018-08-15 03:28:53pm, STATIC, random_4, false, LEFT, 2612, 0, 0, 0, 0
12,2018-08-15 03:28:56pm, STATIC, random_4, true, RIGHT, 2587, 1, 1, 1, 1
13,2018-08-15 03:28:58pm, STATIC, random_4, true, RIGHT, 2801, 1, 0, 1, 0
14,2018-08-15 03:29:01pm, STATIC, random_4, true, RIGHT, 2662, 0, 0, 0, 0
15,2018-08-15 03:29:03pm, STATIC, random_4, true, RIGHT, 2521, 0, 0, 0, 0
16,2018-08-15 03:29:07pm, STATIC, random_4, true, RIGHT, 3565, 0, 0, 0, 0
17,2018-08-15 03:29:10pm, STATIC, random_4, true, RIGHT, 2636, 0, 0, 0, 0
18,2018-08-15 03:29:14pm, STATIC, random_4, false, LEFT, 2588, 0, 0, 0, 0
19,2018-08-15 03:29:16pm, STATIC, random_4, false, LEFT, 4314, 1, 0, 0, 1
20,2018-08-15 03:29:20pm, STATIC, random_4, true, RIGHT, 3123, 0, 0, 0, 0
21,2018-08-15 03:29:23pm, STATIC, random_4, true, RIGHT, 3438, 1, 0, 1, 0
22,2018-08-15 03:29:26pm, STATIC, random_4, true, RIGHT, 2762, 0, 1, 0, 1
23,2018-08-15 03:29:28pm, STATIC, random_4, true, RIGHT, 2637, 1, 0, 1, 0
24,2018-08-15 03:29:31pm, STATIC, random_4, true, RIGHT, 2799, 0, 0, 0, 0
25,2018-08-15 03:29:34pm, STATIC, random_4, false, LEFT, 2675, 1, 1, 1, 1
26,2018-08-15 03:29:37pm, STATIC, random_4, false, LEFT, 2812, 0, 0, 0, 0
27,2018-08-15 03:29:40pm, STATIC, random_4, false, LEFT, 2999, 0, 0, 0, 0
28,2018-08-15 03:29:42pm, STATIC, random_4, false, LEFT, 2538, 0, 1, 1, 0
29,2018-08-15 03:29:45pm, STATIC, random_4, false, LEFT, 2640, 0, 0, 0, 0
30,2018-08-15 03:29:48pm, STATIC, random_4, false, LEFT, 2372, 0, 0, 0, 0
31,2018-08-15 03:29:50pm, STATIC, random_4, true, RIGHT, 2985, 0, 0, 0, 0
32,2018-08-15 03:29:53pm, STATIC, random_4, true, RIGHT, 2588, 0, 0, 0, 0
33,2018-08-15 03:29:55pm, STATIC, random_4, false, LEFT, 2476, 0, 1, 1, 0
34,2018-08-15 03:29:58pm, STATIC, random_4, true, RIGHT, 2699, 1, 0, 1, 0
35,2018-08-15 03:30:01pm, STATIC, random_4, true, RIGHT, 2488, 0, 0, 0, 0
36,2018-08-15 03:30:03pm, STATIC, random_4, true, RIGHT, 2849, 0, 0, 0, 0
37,2018-08-15 03:30:06pm, STATIC, random_4, false, LEFT, 2986, 1, 0, 0, 1
38,2018-08-15 03:30:09pm, STATIC, random_4, false, LEFT, 2476, 1, 0, 0, 1
39,2018-08-15 03:30:11pm, STATIC, random_4, false, LEFT, 2511, 0, 1, 1, 0
40,2018-08-15 03:30:14pm, STATIC, random_4, true, RIGHT, 2612, 1, 0, 1, 0
41,2018-08-15 03:30:17pm, STATIC, random_4, true, RIGHT, 2562, 1, 0, 1, 0
42,2018-08-15 03:30:19pm, STATIC, random_4, true, RIGHT, 2537, 0, 1, 0, 1
43,2018-08-15 03:30:22pm, STATIC, random_4, true, RIGHT, 2624, 0, 0, 0, 0
44,2018-08-15 03:30:24pm, STATIC, random_4, false, LEFT, 2437, 1, 0, 0, 1
45,2018-08-15 03:30:33pm, STATIC, random_4, false, LEFT, 8302, 1, 0, 0, 1
46,2018-08-15 03:30:35pm, STATIC, random_4, false, LEFT, 2497, 1, 0, 0, 1
47,2018-08-15 03:30:39pm, STATIC, random_4, false, LEFT, 3936, 0, 0, 0, 0
48,2018-08-15 03:30:41pm, STATIC, random_4, true, RIGHT, 2537, 0, 0, 0, 0
49,2018-08-15 03:30:44pm, STATIC, random_4, true, RIGHT, 2550, 0, 0, 0, 0
50,2018-08-15 03:30:46pm, STATIC, random_4, false, LEFT, 2489, 0, 0, 0, 0
51,2018-08-15 03:30:49pm, STATIC, random_4, true, RIGHT, 2438, 0, 0, 0, 0
52,2018-08-15 03:30:51pm, STATIC, random_4, true, RIGHT, 2399, 0, 0, 0, 0
53,2018-08-15 03:30:54pm, STATIC, random_4, false, LEFT, 2566, 0, 0, 0, 0
54,2018-08-15 03:30:57pm, STATIC, random_4, false, LEFT, 2548, 0, 0, 0, 0
55,2018-08-15 03:30:59pm, STATIC, random_4, false, LEFT, 2702, 0, 0, 0, 0
56,2018-08-15 03:31:02pm, STATIC, random_4, true, RIGHT, 2623, 0, 0, 0, 0
57,2018-08-15 03:31:04pm, STATIC, random_4, true, RIGHT, 2425, 1, 0, 1, 0
58,2018-08-15 03:31:07pm, STATIC, random_4, true, RIGHT, 2551, 0, 0, 0, 0
59,2018-08-15 03:31:11pm, STATIC, random_4, true, RIGHT, 3887, 0, 1, 0, 1
60,2018-08-15 03:31:13pm, STATIC, random_4, false, LEFT, 2827, 1, 1, 1, 1
61,2018-08-15 03:31:16pm, STATIC, random_4, false, LEFT, 2573, 0, 0, 0, 0
62,2018-08-15 03:31:18pm, STATIC, random_4, true, RIGHT, 2501, 1, 1, 1, 1
63,2018-08-15 03:31:21pm, STATIC, random_4, true, RIGHT, 2637, 0, 0, 0, 0
64,2018-08-15 03:31:28pm, STATIC, random_4, true, RIGHT, 6673, 0, 0, 0, 0
65,2018-08-15 03:31:32pm, STATIC, random_4, true, RIGHT, 3529, 0, 0, 0, 0
66,2018-08-15 03:31:34pm, STATIC, random_4, false, LEFT, 2538, 1, 0, 0, 1
67,2018-08-15 03:31:37pm, STATIC, random_4, false, LEFT, 2724, 0, 0, 0, 0
68,2018-08-15 03:31:39pm, STATIC, random_4, true, RIGHT, 2463, 1, 0, 1, 0
69,2018-08-15 03:31:42pm, STATIC, random_4, true, RIGHT, 2527, 0, 0, 0, 0
70,2018-08-15 03:31:44pm, STATIC, random_4, false, LEFT, 2440, 1, 0, 0, 1
71,2018-08-15 03:31:46pm, STATIC, random_4, false, LEFT, 2474, 0, 0, 0, 0
72,2018-08-15 03:31:49pm, STATIC, random_4, false, LEFT, 2526, 1, 0, 0, 1
73,2018-08-15 03:31:52pm, STATIC, random_4, false, LEFT, 2687, 0, 0, 0, 0
74,2018-08-15 03:31:54pm, STATIC, random_4, false, LEFT, 2391, 0, 0, 0, 0
75,2018-08-15 03:31:57pm, STATIC, random_4, true, RIGHT, 2875, 0, 0, 0, 0
76,2018-08-15 03:31:59pm, STATIC, random_4, true, RIGHT, 2500, 0, 0, 0, 0
77,2018-08-15 03:32:02pm, STATIC, random_4, true, RIGHT, 2591, 0, 0, 0, 0
78,2018-08-15 03:32:05pm, STATIC, random_4, false, LEFT, 2789, 0, 0, 0, 0
79,2018-08-15 03:32:07pm, STATIC, random_4, false, LEFT, 2423, 0, 0, 0, 0
80,2018-08-15 03:32:10pm, STATIC, random_4, true, RIGHT, 2901, 0, 0, 0, 0
81,2018-08-15 03:32:13pm, STATIC, random_4, true, RIGHT, 2363, 1, 1, 1, 1
82,2018-08-15 03:32:15pm, STATIC, random_4, true, RIGHT, 2637, 1, 0, 1, 0
83,2018-08-15 03:32:18pm, STATIC, random_4, true, RIGHT, 2554, 0, 0, 0, 0
84,2018-08-15 03:32:20pm, STATIC, random_4, true, RIGHT, 2650, 0, 1, 0, 1
85,2018-08-15 03:32:23pm, STATIC, random_4, true, RIGHT, 2814, 0, 0, 0, 0
86,2018-08-15 03:32:26pm, STATIC, random_4, true, RIGHT, 2489, 0, 0, 0, 0
87,2018-08-15 03:32:29pm, STATIC, random_4, true, RIGHT, 2898, 0, 0, 0, 0
88,2018-08-15 03:32:31pm, STATIC, random_4, true, RIGHT, 2364, 1, 0, 1, 0
89,2018-08-15 03:32:33pm, STATIC, random_4, true, RIGHT, 2537, 0, 0, 0, 0
90,2018-08-15 03:32:38pm, STATIC, random_4, true, RIGHT, 4840, 0, 0, 0, 0
91,2018-08-15 03:32:42pm, STATIC, random_4, true, RIGHT, 3364, 0, 0, 0, 0
92,2018-08-15 03:32:44pm, STATIC, random_4, true, RIGHT, 2376, 0, 1, 0, 1
93,2018-08-15 03:32:46pm, STATIC, random_4, true, RIGHT, 2425, 1, 1, 1, 1
94,2018-08-15 03:32:49pm, STATIC, random_4, true, RIGHT, 2462, 1, 0, 1, 0
95,2018-08-15 03:32:51pm, STATIC, random_4, true, RIGHT, 2563, 0, 0, 0, 0
96,2018-08-15 03:32:54pm, STATIC, random_4, true, RIGHT, 2565, 0, 0, 0, 0
97,2018-08-15 03:32:57pm, STATIC, random_4, true, RIGHT, 2751, 0, 1, 0, 1
98,2018-08-15 03:32:59pm, STATIC, random_4, true, RIGHT, 2599, 0, 1, 0, 1
