[{"RT":7071,"time": "2018-08-15 03:30:12pm", "schedule_type": "STATIC", "schedule_name": "random_4", "is_biased_choice":true,"side_choice": "LEFT", "trial_number":0,"observed_reward":1,"unobserved_reward":0},{"RT":5752,"time": "2018-08-15 03:30:18pm", "schedule_type": "STATIC", "schedule_name": "random_4", "is_biased_choice":true,"side_choice": "LEFT", "trial_number":1,"observed_reward":0,"unobserved_reward":0},{"RT":5058,"time": "2018-08-15 03:30:23pm", "schedule_type": "STATIC", "schedule_name": "random_4", "is_biased_choice":false,"side_choice": "RIGHT", "trial_number":2,"observed_reward":0,"unobserved_reward":1},{"RT":5031,"time": "2018-08-15 03:30:28pm", "schedule_type": "STATIC", "schedule_name": "random_4", "is_biased_choice":true,"side_choice": "LEFT", "trial_number":3,"observed_reward":1,"unobserved_reward":0},{"RT":4048,"time": "2018-08-15 03:30:32pm", "schedule_type": "STATIC", "schedule_name": "random_4", "is_biased_choice":false,"side_choice": "RIGHT", "trial_number":4,"observed_reward":0,"unobserved_reward":0},{"RT":6039,"time": "2018-08-15 03:30:38pm", "schedule_type": "STATIC", "schedule_name": "random_4", "is_biased_choice":true,"side_choice": "LEFT", "trial_number":5,"observed_reward":0,"unobserved_reward":0},{"RT":7136,"time": "2018-08-15 03:30:45pm", "schedule_type": "STATIC", "schedule_name": "random_4", "is_biased_choice":false,"side_choice": "RIGHT", "trial_number":6,"observed_reward":0,"unobserved_reward":1},{"RT":3377,"time": "2018-08-15 03:30:48pm", "schedule_type": "STATIC", "schedule_name": "random_4", "is_biased_choice":true,"side_choice": "LEFT", "trial_number":7,"observed_reward":0,"unobserved_reward":1},{"RT":3104,"time": "2018-08-15 03:30:51pm", "schedule_type": "STATIC", "schedule_name": "random_4", "is_biased_choice":false,"side_choice": "RIGHT", "trial_number":8,"observed_reward":1,"unobserved_reward":0},{"RT":3599,"time": "2018-08-15 03:30:55pm", "schedule_type": "STATIC", "schedule_name": "random_4", "is_biased_choice":false,"side_choice": "RIGHT", "trial_number":9,"observed_reward":0,"unobserved_reward":0},{"RT":2785,"time": "2018-08-15 03:30:58pm", "schedule_type": "STATIC", "schedule_name": "random_4", "is_biased_choice":true,"side_choice": "LEFT", "trial_number":10,"observed_reward":1,"unobserved_reward":1},{"RT":4770,"time": "2018-08-15 03:31:01pm", "schedule_type": "STATIC", "schedule_name": "random_4", "is_biased_choice":false,"side_choice": "RIGHT", "trial_number":11,"observed_reward":0,"unobserved_reward":0},{"RT":2644,"time": "2018-08-15 03:31:03pm", "schedule_type": "STATIC", "schedule_name": "random_4", "is_biased_choice":true,"side_choice": "LEFT", "trial_number":12,"observed_reward":1,"unobserved_reward":1},{"RT":3064,"time": "2018-08-15 03:31:07pm", "schedule_type": "STATIC", "schedule_name": "random_4", "is_biased_choice":true,"side_choice": "LEFT", "trial_number":13,"observed_reward":1,"unobserved_reward":0},{"RT":3415,"time": "2018-08-15 03:31:10pm", "schedule_type": "STATIC", "schedule_name": "random_4", "is_biased_choice":false,"side_choice": "RIGHT", "trial_number":14,"observed_reward":0,"unobserved_reward":0},{"RT":2369,"time": "2018-08-15 03:31:12pm", "schedule_type": "STATIC", "schedule_name": "random_4", "is_biased_choice":true,"side_choice": "LEFT", "trial_number":15,"observed_reward":0,"unobserved_reward":0},{"RT":3170,"time": "2018-08-15 03:31:16pm", "schedule_type": "STATIC", "schedule_name": "random_4", "is_biased_choice":false,"side_choice": "RIGHT", "trial_number":16,"observed_reward":0,"unobserved_reward":0},{"RT":2351,"time": "2018-08-15 03:31:18pm", "schedule_type": "STATIC", "schedule_name": "random_4", "is_biased_choice":true,"side_choice": "LEFT", "trial_number":17,"observed_reward":0,"unobserved_reward":0},{"RT":2320,"time": "2018-08-15 03:31:20pm", "schedule_type": "STATIC", "schedule_name": "random_4", "is_biased_choice":false,"side_choice": "RIGHT", "trial_number":18,"observed_reward":0,"unobserved_reward":0},{"RT":2328,"time": "2018-08-15 03:31:23pm", "schedule_type": "STATIC", "schedule_name": "random_4", "is_biased_choice":true,"side_choice": "LEFT", "trial_number":19,"observed_reward":0,"unobserved_reward":1},{"RT":2374,"time": "2018-08-15 03:31:25pm", "schedule_type": "STATIC", "schedule_name": "random_4", "is_biased_choice":false,"side_choice": "RIGHT", "trial_number":20,"observed_reward":0,"unobserved_reward":0},{"RT":2721,"time": "2018-08-15 03:31:27pm", "schedule_type": "STATIC", "schedule_name": "random_4", "is_biased_choice":true,"side_choice": "LEFT", "trial_number":21,"observed_reward":1,"unobserved_reward":0},{"RT":4032,"time": "2018-08-15 03:31:32pm", "schedule_type": "STATIC", "schedule_name": "random_4", "is_biased_choice":false,"side_choice": "RIGHT", "trial_number":22,"observed_reward":1,"unobserved_reward":0},{"RT":2912,"time": "2018-08-15 03:31:34pm", "schedule_type": "STATIC", "schedule_name": "random_4", "is_biased_choice":true,"side_choice": "LEFT", "trial_number":23,"observed_reward":1,"unobserved_reward":0},{"RT":3320,"time": "2018-08-15 03:31:38pm", "schedule_type": "STATIC", "schedule_name": "random_4", "is_biased_choice":false,"side_choice": "RIGHT", "trial_number":24,"observed_reward":0,"unobserved_reward":0},{"RT":2969,"time": "2018-08-15 03:31:41pm", "schedule_type": "STATIC", "schedule_name": "random_4", "is_biased_choice":true,"side_choice": "LEFT", "trial_number":25,"observed_reward":1,"unobserved_reward":1},{"RT":2912,"time": "2018-08-15 03:31:44pm", "schedule_type": "STATIC", "schedule_name": "random_4", "is_biased_choice":true,"side_choice": "LEFT", "trial_number":26,"observed_reward":0,"unobserved_reward":0},{"RT":2239,"time": "2018-08-15 03:31:46pm", "schedule_type": "STATIC", "schedule_name": "random_4", "is_biased_choice":false,"side_choice": "RIGHT", "trial_number":27,"observed_reward":0,"unobserved_reward":0},{"RT":3008,"time": "2018-08-15 03:31:49pm", "schedule_type": "STATIC", "schedule_name": "random_4", "is_biased_choice":true,"side_choice": "LEFT", "trial_number":28,"observed_reward":1,"unobserved_reward":0},{"RT":10352,"time": "2018-08-15 03:31:59pm", "schedule_type": "STATIC", "schedule_name": "random_4", "is_biased_choice":true,"side_choice": "LEFT", "trial_number":29,"observed_reward":0,"unobserved_reward":0},{"RT":4558,"time": "2018-08-15 03:32:02pm", "schedule_type": "STATIC", "schedule_name": "random_4", "is_biased_choice":false,"side_choice": "RIGHT", "trial_number":30,"observed_reward":0,"unobserved_reward":0},{"RT":3538,"time": "2018-08-15 03:32:05pm", "schedule_type": "STATIC", "schedule_name": "random_4", "is_biased_choice":true,"side_choice": "LEFT", "trial_number":31,"observed_reward":0,"unobserved_reward":0},{"RT":2854,"time": "2018-08-15 03:32:08pm", "schedule_type": "STATIC", "schedule_name": "random_4", "is_biased_choice":false,"side_choice": "RIGHT", "trial_number":32,"observed_reward":0,"unobserved_reward":0},{"RT":3089,"time": "2018-08-15 03:32:11pm", "schedule_type": "STATIC", "schedule_name": "random_4", "is_biased_choice":false,"side_choice": "RIGHT", "trial_number":33,"observed_reward":0,"unobserved_reward":1},{"RT":2400,"time": "2018-08-15 03:32:13pm", "schedule_type": "STATIC", "schedule_name": "random_4", "is_biased_choice":true,"side_choice": "LEFT", "trial_number":34,"observed_reward":1,"unobserved_reward":0},{"RT":2545,"time": "2018-08-15 03:32:16pm", "schedule_type": "STATIC", "schedule_name": "random_4", "is_biased_choice":false,"side_choice": "RIGHT", "trial_number":35,"observed_reward":0,"unobserved_reward":0},{"RT":2311,"time": "2018-08-15 03:32:19pm", "schedule_type": "STATIC", "schedule_name": "random_4", "is_biased_choice":true,"side_choice": "LEFT", "trial_number":36,"observed_reward":0,"unobserved_reward":0},{"RT":2442,"time": "2018-08-15 03:32:21pm", "schedule_type": "STATIC", "schedule_name": "random_4", "is_biased_choice":false,"side_choice": "RIGHT", "trial_number":37,"observed_reward":1,"unobserved_reward":0},{"RT":2920,"time": "2018-08-15 03:32:24pm", "schedule_type": "STATIC", "schedule_name": "random_4", "is_biased_choice":true,"side_choice": "LEFT", "trial_number":38,"observed_reward":0,"unobserved_reward":1},{"RT":3006,"time": "2018-08-15 03:32:26pm", "schedule_type": "STATIC", "schedule_name": "random_4", "is_biased_choice":false,"side_choice": "RIGHT", "trial_number":39,"observed_reward":0,"unobserved_reward":1},{"RT":2344,"time": "2018-08-15 03:32:29pm", "schedule_type": "STATIC", "schedule_name": "random_4", "is_biased_choice":true,"side_choice": "LEFT", "trial_number":40,"observed_reward":1,"unobserved_reward":0},{"RT":3177,"time": "2018-08-15 03:32:32pm", "schedule_type": "STATIC", "schedule_name": "random_4", "is_biased_choice":true,"side_choice": "LEFT", "trial_number":41,"observed_reward":1,"unobserved_reward":0},{"RT":2544,"time": "2018-08-15 03:32:34pm", "schedule_type": "STATIC", "schedule_name": "random_4", "is_biased_choice":true,"side_choice": "LEFT", "trial_number":42,"observed_reward":0,"unobserved_reward":1},{"RT":2526,"time": "2018-08-15 03:32:37pm", "schedule_type": "STATIC", "schedule_name": "random_4", "is_biased_choice":false,"side_choice": "RIGHT", "trial_number":43,"observed_reward":0,"unobserved_reward":0},{"RT":2530,"time": "2018-08-15 03:32:40pm", "schedule_type": "STATIC", "schedule_name": "random_4", "is_biased_choice":true,"side_choice": "LEFT", "trial_number":44,"observed_reward":0,"unobserved_reward":1},{"RT":2298,"time": "2018-08-15 03:32:42pm", "schedule_type": "STATIC", "schedule_name": "random_4", "is_biased_choice":false,"side_choice": "RIGHT", "trial_number":45,"observed_reward":1,"unobserved_reward":0},{"RT":2862,"time": "2018-08-15 03:32:45pm", "schedule_type": "STATIC", "schedule_name": "random_4", "is_biased_choice":true,"side_choice": "LEFT", "trial_number":46,"observed_reward":0,"unobserved_reward":1},{"RT":2416,"time": "2018-08-15 03:32:47pm", "schedule_type": "STATIC", "schedule_name": "random_4", "is_biased_choice":false,"side_choice": "RIGHT", "trial_number":47,"observed_reward":0,"unobserved_reward":0},{"RT":2785,"time": "2018-08-15 03:32:50pm", "schedule_type": "STATIC", "schedule_name": "random_4", "is_biased_choice":true,"side_choice": "LEFT", "trial_number":48,"observed_reward":0,"unobserved_reward":0},{"RT":2486,"time": "2018-08-15 03:32:53pm", "schedule_type": "STATIC", "schedule_name": "random_4", "is_biased_choice":false,"side_choice": "RIGHT", "trial_number":49,"observed_reward":0,"unobserved_reward":0},{"RT":2649,"time": "2018-08-15 03:32:55pm", "schedule_type": "STATIC", "schedule_name": "random_4", "is_biased_choice":true,"side_choice": "LEFT", "trial_number":50,"observed_reward":0,"unobserved_reward":0},{"RT":3135,"time": "2018-08-15 03:32:58pm", "schedule_type": "STATIC", "schedule_name": "random_4", "is_biased_choice":false,"side_choice": "RIGHT", "trial_number":51,"observed_reward":0,"unobserved_reward":0},{"RT":4491,"time": "2018-08-15 03:33:01pm", "schedule_type": "STATIC", "schedule_name": "random_4", "is_biased_choice":true,"side_choice": "LEFT", "trial_number":52,"observed_reward":0,"unobserved_reward":0},{"RT":2610,"time": "2018-08-15 03:33:03pm", "schedule_type": "STATIC", "schedule_name": "random_4", "is_biased_choice":false,"side_choice": "RIGHT", "trial_number":53,"observed_reward":0,"unobserved_reward":0},{"RT":2408,"time": "2018-08-15 03:33:06pm", "schedule_type": "STATIC", "schedule_name": "random_4", "is_biased_choice":true,"side_choice": "LEFT", "trial_number":54,"observed_reward":0,"unobserved_reward":0},{"RT":2527,"time": "2018-08-15 03:33:09pm", "schedule_type": "STATIC", "schedule_name": "random_4", "is_biased_choice":false,"side_choice": "RIGHT", "trial_number":55,"observed_reward":0,"unobserved_reward":0},{"RT":2551,"time": "2018-08-15 03:33:11pm", "schedule_type": "STATIC", "schedule_name": "random_4", "is_biased_choice":false,"side_choice": "RIGHT", "trial_number":56,"observed_reward":0,"unobserved_reward":0},{"RT":3208,"time": "2018-08-15 03:33:14pm", "schedule_type": "STATIC", "schedule_name": "random_4", "is_biased_choice":true,"side_choice": "LEFT", "trial_number":57,"observed_reward":1,"unobserved_reward":0},{"RT":2600,"time": "2018-08-15 03:33:17pm", "schedule_type": "STATIC", "schedule_name": "random_4", "is_biased_choice":true,"side_choice": "LEFT", "trial_number":58,"observed_reward":0,"unobserved_reward":0},{"RT":2376,"time": "2018-08-15 03:33:19pm", "schedule_type": "STATIC", "schedule_name": "random_4", "is_biased_choice":false,"side_choice": "RIGHT", "trial_number":59,"observed_reward":1,"unobserved_reward":0},{"RT":2728,"time": "2018-08-15 03:33:22pm", "schedule_type": "STATIC", "schedule_name": "random_4", "is_biased_choice":false,"side_choice": "RIGHT", "trial_number":60,"observed_reward":1,"unobserved_reward":1},{"RT":2803,"time": "2018-08-15 03:33:25pm", "schedule_type": "STATIC", "schedule_name": "random_4", "is_biased_choice":false,"side_choice": "RIGHT", "trial_number":61,"observed_reward":0,"unobserved_reward":0},{"RT":2397,"time": "2018-08-15 03:33:27pm", "schedule_type": "STATIC", "schedule_name": "random_4", "is_biased_choice":true,"side_choice": "LEFT", "trial_number":62,"observed_reward":1,"unobserved_reward":1},{"RT":2536,"time": "2018-08-15 03:33:30pm", "schedule_type": "STATIC", "schedule_name": "random_4", "is_biased_choice":true,"side_choice": "LEFT", "trial_number":63,"observed_reward":0,"unobserved_reward":0},{"RT":2520,"time": "2018-08-15 03:33:32pm", "schedule_type": "STATIC", "schedule_name": "random_4", "is_biased_choice":false,"side_choice": "RIGHT", "trial_number":64,"observed_reward":0,"unobserved_reward":0},{"RT":2432,"time": "2018-08-15 03:33:35pm", "schedule_type": "STATIC", "schedule_name": "random_4", "is_biased_choice":true,"side_choice": "LEFT", "trial_number":65,"observed_reward":0,"unobserved_reward":0},{"RT":2468,"time": "2018-08-15 03:33:37pm", "schedule_type": "STATIC", "schedule_name": "random_4", "is_biased_choice":false,"side_choice": "RIGHT", "trial_number":66,"observed_reward":1,"unobserved_reward":0},{"RT":2823,"time": "2018-08-15 03:33:40pm", "schedule_type": "STATIC", "schedule_name": "random_4", "is_biased_choice":false,"side_choice": "RIGHT", "trial_number":67,"observed_reward":0,"unobserved_reward":0},{"RT":2758,"time": "2018-08-15 03:33:42pm", "schedule_type": "STATIC", "schedule_name": "random_4", "is_biased_choice":true,"side_choice": "LEFT", "trial_number":68,"observed_reward":1,"unobserved_reward":0},{"RT":2576,"time": "2018-08-15 03:33:45pm", "schedule_type": "STATIC", "schedule_name": "random_4", "is_biased_choice":true,"side_choice": "LEFT", "trial_number":69,"observed_reward":0,"unobserved_reward":0},{"RT":2304,"time": "2018-08-15 03:33:48pm", "schedule_type": "STATIC", "schedule_name": "random_4", "is_biased_choice":false,"side_choice": "RIGHT", "trial_number":70,"observed_reward":1,"unobserved_reward":0},{"RT":3135,"time": "2018-08-15 03:33:51pm", "schedule_type": "STATIC", "schedule_name": "random_4", "is_biased_choice":false,"side_choice": "RIGHT", "trial_number":71,"observed_reward":0,"unobserved_reward":0},{"RT":2481,"time": "2018-08-15 03:33:53pm", "schedule_type": "STATIC", "schedule_name": "random_4", "is_biased_choice":true,"side_choice": "LEFT", "trial_number":72,"observed_reward":0,"unobserved_reward":1},{"RT":2815,"time": "2018-08-15 03:33:56pm", "schedule_type": "STATIC", "schedule_name": "random_4", "is_biased_choice":false,"side_choice": "RIGHT", "trial_number":73,"observed_reward":0,"unobserved_reward":0},{"RT":2521,"time": "2018-08-15 03:33:58pm", "schedule_type": "STATIC", "schedule_name": "random_4", "is_biased_choice":true,"side_choice": "LEFT", "trial_number":74,"observed_reward":0,"unobserved_reward":0},{"RT":4745,"time": "2018-08-15 03:34:01pm", "schedule_type": "STATIC", "schedule_name": "random_4", "is_biased_choice":false,"side_choice": "RIGHT", "trial_number":75,"observed_reward":0,"unobserved_reward":0},{"RT":2541,"time": "2018-08-15 03:34:04pm", "schedule_type": "STATIC", "schedule_name": "random_4", "is_biased_choice":true,"side_choice": "LEFT", "trial_number":76,"observed_reward":0,"unobserved_reward":0},{"RT":2427,"time": "2018-08-15 03:34:06pm", "schedule_type": "STATIC", "schedule_name": "random_4", "is_biased_choice":false,"side_choice": "RIGHT", "trial_number":77,"observed_reward":0,"unobserved_reward":0},{"RT":4128,"time": "2018-08-15 03:34:10pm", "schedule_type": "STATIC", "schedule_name": "random_4", "is_biased_choice":true,"side_choice": "LEFT", "trial_number":78,"observed_reward":0,"unobserved_reward":0},{"RT":4487,"time": "2018-08-15 03:34:14pm", "schedule_type": "STATIC", "schedule_name": "random_4", "is_biased_choice":true,"side_choice": "LEFT", "trial_number":79,"observed_reward":0,"unobserved_reward":0},{"RT":2433,"time": "2018-08-15 03:34:17pm", "schedule_type": "STATIC", "schedule_name": "random_4", "is_biased_choice":false,"side_choice": "RIGHT", "trial_number":80,"observed_reward":0,"unobserved_reward":0},{"RT":2616,"time": "2018-08-15 03:34:20pm", "schedule_type": "STATIC", "schedule_name": "random_4", "is_biased_choice":true,"side_choice": "LEFT", "trial_number":81,"observed_reward":1,"unobserved_reward":1},{"RT":2393,"time": "2018-08-15 03:34:22pm", "schedule_type": "STATIC", "schedule_name": "random_4", "is_biased_choice":true,"side_choice": "LEFT", "trial_number":82,"observed_reward":1,"unobserved_reward":0},{"RT":2508,"time": "2018-08-15 03:34:25pm", "schedule_type": "STATIC", "schedule_name": "random_4", "is_biased_choice":false,"side_choice": "RIGHT", "trial_number":83,"observed_reward":0,"unobserved_reward":0},{"RT":2603,"time": "2018-08-15 03:34:27pm", "schedule_type": "STATIC", "schedule_name": "random_4", "is_biased_choice":true,"side_choice": "LEFT", "trial_number":84,"observed_reward":0,"unobserved_reward":1},{"RT":2376,"time": "2018-08-15 03:34:30pm", "schedule_type": "STATIC", "schedule_name": "random_4", "is_biased_choice":false,"side_choice": "RIGHT", "trial_number":85,"observed_reward":0,"unobserved_reward":0},{"RT":2538,"time": "2018-08-15 03:34:32pm", "schedule_type": "STATIC", "schedule_name": "random_4", "is_biased_choice":true,"side_choice": "LEFT", "trial_number":86,"observed_reward":0,"unobserved_reward":0},{"RT":2895,"time": "2018-08-15 03:34:35pm", "schedule_type": "STATIC", "schedule_name": "random_4", "is_biased_choice":false,"side_choice": "RIGHT", "trial_number":87,"observed_reward":0,"unobserved_reward":0},{"RT":2423,"time": "2018-08-15 03:34:37pm", "schedule_type": "STATIC", "schedule_name": "random_4", "is_biased_choice":true,"side_choice": "LEFT", "trial_number":88,"observed_reward":1,"unobserved_reward":0},{"RT":2440,"time": "2018-08-15 03:34:40pm", "schedule_type": "STATIC", "schedule_name": "random_4", "is_biased_choice":true,"side_choice": "LEFT", "trial_number":89,"observed_reward":0,"unobserved_reward":0},{"RT":2928,"time": "2018-08-15 03:34:42pm", "schedule_type": "STATIC", "schedule_name": "random_4", "is_biased_choice":false,"side_choice": "RIGHT", "trial_number":90,"observed_reward":0,"unobserved_reward":0},{"RT":2544,"time": "2018-08-15 03:34:45pm", "schedule_type": "STATIC", "schedule_name": "random_4", "is_biased_choice":true,"side_choice": "LEFT", "trial_number":91,"observed_reward":0,"unobserved_reward":0},{"RT":2328,"time": "2018-08-15 03:34:47pm", "schedule_type": "STATIC", "schedule_name": "random_4", "is_biased_choice":false,"side_choice": "RIGHT", "trial_number":92,"observed_reward":1,"unobserved_reward":0},{"RT":2775,"time": "2018-08-15 03:34:50pm", "schedule_type": "STATIC", "schedule_name": "random_4", "is_biased_choice":false,"side_choice": "RIGHT", "trial_number":93,"observed_reward":1,"unobserved_reward":1},{"RT":2394,"time": "2018-08-15 03:34:53pm", "schedule_type": "STATIC", "schedule_name": "random_4", "is_biased_choice":false,"side_choice": "RIGHT", "trial_number":94,"observed_reward":0,"unobserved_reward":1},{"RT":2657,"time": "2018-08-15 03:34:55pm", "schedule_type": "STATIC", "schedule_name": "random_4", "is_biased_choice":true,"side_choice": "LEFT", "trial_number":95,"observed_reward":0,"unobserved_reward":0},{"RT":2329,"time": "2018-08-15 03:34:58pm", "schedule_type": "STATIC", "schedule_name": "random_4", "is_biased_choice":false,"side_choice": "RIGHT", "trial_number":96,"observed_reward":0,"unobserved_reward":0},{"RT":5362,"time": "2018-08-15 03:35:01pm", "schedule_type": "STATIC", "schedule_name": "random_4", "is_biased_choice":false,"side_choice": "RIGHT", "trial_number":97,"observed_reward":1,"unobserved_reward":0},{"RT":2497,"time": "2018-08-15 03:35:04pm", "schedule_type": "STATIC", "schedule_name": "random_4", "is_biased_choice":false,"side_choice": "RIGHT", "trial_number":98,"observed_reward":1,"unobserved_reward":0},