[{"RT":7107,"time": "2018-08-15 01:43:21pm", "schedule_type": "STATIC", "schedule_name": "random_4", "is_biased_choice":false,"side_choice": "LEFT", "trial_number":0,"observed_reward":0,"unobserved_reward":1},{"RT":3883,"time": "2018-08-15 01:43:24pm", "schedule_type": "STATIC", "schedule_name": "random_4", "is_biased_choice":false,"side_choice": "LEFT", "trial_number":1,"observed_reward":0,"unobserved_reward":0},{"RT":3085,"time": "2018-08-15 01:43:27pm", "schedule_type": "STATIC", "schedule_name": "random_4", "is_biased_choice":false,"side_choice": "LEFT", "trial_number":2,"observed_reward":0,"unobserved_reward":1},{"RT":2872,"time": "2018-08-15 01:43:30pm", "schedule_type": "STATIC", "schedule_name": "random_4", "is_biased_choice":true,"side_choice": "RIGHT", "trial_number":3,"observed_reward":1,"unobserved_reward":0},{"RT":3668,"time": "2018-08-15 01:43:34pm", "schedule_type": "STATIC", "schedule_name": "random_4", "is_biased_choice":true,"side_choice": "RIGHT", "trial_number":4,"observed_reward":0,"unobserved_reward":0},{"RT":3169,"time": "2018-08-15 01:43:37pm", "schedule_type": "STATIC", "schedule_name": "random_4", "is_biased_choice":false,"side_choice": "LEFT", "trial_number":5,"observed_reward":0,"unobserved_reward":0},{"RT":2924,"time": "2018-08-15 01:43:40pm", "schedule_type": "STATIC", "schedule_name": "random_4", "is_biased_choice":true,"side_choice": "RIGHT", "trial_number":6,"observed_reward":1,"unobserved_reward":0},{"RT":18861,"time": "2018-08-15 01:43:59pm", "schedule_type": "STATIC", "schedule_name": "random_4", "is_biased_choice":false,"side_choice": "LEFT", "trial_number":7,"observed_reward":1,"unobserved_reward":0},{"RT":3491,"time": "2018-08-15 01:44:03pm", "schedule_type": "STATIC", "schedule_name": "random_4", "is_biased_choice":false,"side_choice": "LEFT", "trial_number":8,"observed_reward":1,"unobserved_reward":0},{"RT":3166,"time": "2018-08-15 01:44:05pm", "schedule_type": "STATIC", "schedule_name": "random_4", "is_biased_choice":false,"side_choice": "LEFT", "trial_number":9,"observed_reward":0,"unobserved_reward":0},{"RT":3048,"time": "2018-08-15 01:44:08pm", "schedule_type": "STATIC", "schedule_name": "random_4", "is_biased_choice":true,"side_choice": "RIGHT", "trial_number":10,"observed_reward":1,"unobserved_reward":1},{"RT":2980,"time": "2018-08-15 01:44:11pm", "schedule_type": "STATIC", "schedule_name": "random_4", "is_biased_choice":true,"side_choice": "RIGHT", "trial_number":11,"observed_reward":0,"unobserved_reward":0},{"RT":3512,"time": "2018-08-15 01:44:15pm", "schedule_type": "STATIC", "schedule_name": "random_4", "is_biased_choice":true,"side_choice": "RIGHT", "trial_number":12,"observed_reward":1,"unobserved_reward":1},{"RT":3518,"time": "2018-08-15 01:44:19pm", "schedule_type": "STATIC", "schedule_name": "random_4", "is_biased_choice":true,"side_choice": "RIGHT", "trial_number":13,"observed_reward":1,"unobserved_reward":0},{"RT":3909,"time": "2018-08-15 01:44:24pm", "schedule_type": "STATIC", "schedule_name": "random_4", "is_biased_choice":false,"side_choice": "LEFT", "trial_number":14,"observed_reward":0,"unobserved_reward":0},{"RT":4619,"time": "2018-08-15 01:44:27pm", "schedule_type": "STATIC", "schedule_name": "random_4", "is_biased_choice":true,"side_choice": "RIGHT", "trial_number":15,"observed_reward":0,"unobserved_reward":0},{"RT":6322,"time": "2018-08-15 01:44:34pm", "schedule_type": "STATIC", "schedule_name": "random_4", "is_biased_choice":false,"side_choice": "LEFT", "trial_number":16,"observed_reward":0,"unobserved_reward":0},{"RT":3232,"time": "2018-08-15 01:44:37pm", "schedule_type": "STATIC", "schedule_name": "random_4", "is_biased_choice":false,"side_choice": "LEFT", "trial_number":17,"observed_reward":0,"unobserved_reward":0},{"RT":2707,"time": "2018-08-15 01:44:39pm", "schedule_type": "STATIC", "schedule_name": "random_4", "is_biased_choice":true,"side_choice": "RIGHT", "trial_number":18,"observed_reward":0,"unobserved_reward":0},{"RT":2841,"time": "2018-08-15 01:44:42pm", "schedule_type": "STATIC", "schedule_name": "random_4", "is_biased_choice":false,"side_choice": "LEFT", "trial_number":19,"observed_reward":1,"unobserved_reward":0},{"RT":3467,"time": "2018-08-15 01:44:46pm", "schedule_type": "STATIC", "schedule_name": "random_4", "is_biased_choice":true,"side_choice": "RIGHT", "trial_number":20,"observed_reward":0,"unobserved_reward":0},{"RT":3416,"time": "2018-08-15 01:44:49pm", "schedule_type": "STATIC", "schedule_name": "random_4", "is_biased_choice":false,"side_choice": "LEFT", "trial_number":21,"observed_reward":0,"unobserved_reward":1},{"RT":2996,"time": "2018-08-15 01:44:52pm", "schedule_type": "STATIC", "schedule_name": "random_4", "is_biased_choice":true,"side_choice": "RIGHT", "trial_number":22,"observed_reward":0,"unobserved_reward":1},{"RT":2902,"time": "2018-08-15 01:44:55pm", "schedule_type": "STATIC", "schedule_name": "random_4", "is_biased_choice":true,"side_choice": "RIGHT", "trial_number":23,"observed_reward":1,"unobserved_reward":0},{"RT":3994,"time": "2018-08-15 01:44:59pm", "schedule_type": "STATIC", "schedule_name": "random_4", "is_biased_choice":true,"side_choice": "RIGHT", "trial_number":24,"observed_reward":0,"unobserved_reward":0},{"RT":3040,"time": "2018-08-15 01:45:02pm", "schedule_type": "STATIC", "schedule_name": "random_4", "is_biased_choice":true,"side_choice": "RIGHT", "trial_number":25,"observed_reward":1,"unobserved_reward":1},{"RT":3425,"time": "2018-08-15 01:45:06pm", "schedule_type": "STATIC", "schedule_name": "random_4", "is_biased_choice":false,"side_choice": "LEFT", "trial_number":26,"observed_reward":0,"unobserved_reward":0},{"RT":3133,"time": "2018-08-15 01:45:08pm", "schedule_type": "STATIC", "schedule_name": "random_4", "is_biased_choice":false,"side_choice": "LEFT", "trial_number":27,"observed_reward":0,"unobserved_reward":0},{"RT":2775,"time": "2018-08-15 01:45:11pm", "schedule_type": "STATIC", "schedule_name": "random_4", "is_biased_choice":false,"side_choice": "LEFT", "trial_number":28,"observed_reward":0,"unobserved_reward":1},{"RT":2577,"time": "2018-08-15 01:45:14pm", "schedule_type": "STATIC", "schedule_name": "random_4", "is_biased_choice":false,"side_choice": "LEFT", "trial_number":29,"observed_reward":0,"unobserved_reward":0},{"RT":2492,"time": "2018-08-15 01:45:16pm", "schedule_type": "STATIC", "schedule_name": "random_4", "is_biased_choice":true,"side_choice": "RIGHT", "trial_number":30,"observed_reward":0,"unobserved_reward":0},{"RT":2800,"time": "2018-08-15 01:45:19pm", "schedule_type": "STATIC", "schedule_name": "random_4", "is_biased_choice":true,"side_choice": "RIGHT", "trial_number":31,"observed_reward":0,"unobserved_reward":0},{"RT":2574,"time": "2018-08-15 01:45:22pm", "schedule_type": "STATIC", "schedule_name": "random_4", "is_biased_choice":true,"side_choice": "RIGHT", "trial_number":32,"observed_reward":0,"unobserved_reward":0},{"RT":2656,"time": "2018-08-15 01:45:25pm", "schedule_type": "STATIC", "schedule_name": "random_4", "is_biased_choice":false,"side_choice": "LEFT", "trial_number":33,"observed_reward":0,"unobserved_reward":1},{"RT":3209,"time": "2018-08-15 01:45:28pm", "schedule_type": "STATIC", "schedule_name": "random_4", "is_biased_choice":true,"side_choice": "RIGHT", "trial_number":34,"observed_reward":1,"unobserved_reward":0},{"RT":3253,"time": "2018-08-15 01:45:31pm", "schedule_type": "STATIC", "schedule_name": "random_4", "is_biased_choice":false,"side_choice": "LEFT", "trial_number":35,"observed_reward":0,"unobserved_reward":0},{"RT":2892,"time": "2018-08-15 01:45:34pm", "schedule_type": "STATIC", "schedule_name": "random_4", "is_biased_choice":true,"side_choice": "RIGHT", "trial_number":36,"observed_reward":0,"unobserved_reward":0},{"RT":2513,"time": "2018-08-15 01:45:36pm", "schedule_type": "STATIC", "schedule_name": "random_4", "is_biased_choice":false,"side_choice": "LEFT", "trial_number":37,"observed_reward":1,"unobserved_reward":0},{"RT":2970,"time": "2018-08-15 01:45:39pm", "schedule_type": "STATIC", "schedule_name": "random_4", "is_biased_choice":true,"side_choice": "RIGHT", "trial_number":38,"observed_reward":0,"unobserved_reward":1},{"RT":4791,"time": "2018-08-15 01:45:44pm", "schedule_type": "STATIC", "schedule_name": "random_4", "is_biased_choice":true,"side_choice": "RIGHT", "trial_number":39,"observed_reward":1,"unobserved_reward":0},{"RT":3989,"time": "2018-08-15 01:45:48pm", "schedule_type": "STATIC", "schedule_name": "random_4", "is_biased_choice":true,"side_choice": "RIGHT", "trial_number":40,"observed_reward":1,"unobserved_reward":0},{"RT":3072,"time": "2018-08-15 01:45:51pm", "schedule_type": "STATIC", "schedule_name": "random_4", "is_biased_choice":true,"side_choice": "RIGHT", "trial_number":41,"observed_reward":1,"unobserved_reward":0},{"RT":3242,"time": "2018-08-15 01:45:54pm", "schedule_type": "STATIC", "schedule_name": "random_4", "is_biased_choice":true,"side_choice": "RIGHT", "trial_number":42,"observed_reward":0,"unobserved_reward":1},{"RT":2834,"time": "2018-08-15 01:45:57pm", "schedule_type": "STATIC", "schedule_name": "random_4", "is_biased_choice":false,"side_choice": "LEFT", "trial_number":43,"observed_reward":0,"unobserved_reward":0},{"RT":2714,"time": "2018-08-15 01:46:00pm", "schedule_type": "STATIC", "schedule_name": "random_4", "is_biased_choice":false,"side_choice": "LEFT", "trial_number":44,"observed_reward":1,"unobserved_reward":0},{"RT":3448,"time": "2018-08-15 01:46:03pm", "schedule_type": "STATIC", "schedule_name": "random_4", "is_biased_choice":true,"side_choice": "RIGHT", "trial_number":45,"observed_reward":0,"unobserved_reward":1},{"RT":2761,"time": "2018-08-15 01:46:06pm", "schedule_type": "STATIC", "schedule_name": "random_4", "is_biased_choice":true,"side_choice": "RIGHT", "trial_number":46,"observed_reward":0,"unobserved_reward":1},{"RT":2844,"time": "2018-08-15 01:46:09pm", "schedule_type": "STATIC", "schedule_name": "random_4", "is_biased_choice":false,"side_choice": "LEFT", "trial_number":47,"observed_reward":0,"unobserved_reward":0},{"RT":2642,"time": "2018-08-15 01:46:12pm", "schedule_type": "STATIC", "schedule_name": "random_4", "is_biased_choice":true,"side_choice": "RIGHT", "trial_number":48,"observed_reward":0,"unobserved_reward":0},{"RT":2859,"time": "2018-08-15 01:46:14pm", "schedule_type": "STATIC", "schedule_name": "random_4", "is_biased_choice":false,"side_choice": "LEFT", "trial_number":49,"observed_reward":0,"unobserved_reward":0},{"RT":2728,"time": "2018-08-15 01:46:17pm", "schedule_type": "STATIC", "schedule_name": "random_4", "is_biased_choice":false,"side_choice": "LEFT", "trial_number":50,"observed_reward":0,"unobserved_reward":0},{"RT":2620,"time": "2018-08-15 01:46:20pm", "schedule_type": "STATIC", "schedule_name": "random_4", "is_biased_choice":false,"side_choice": "LEFT", "trial_number":51,"observed_reward":0,"unobserved_reward":0},{"RT":5376,"time": "2018-08-15 01:46:27pm", "schedule_type": "STATIC", "schedule_name": "random_4", "is_biased_choice":true,"side_choice": "RIGHT", "trial_number":52,"observed_reward":0,"unobserved_reward":0},{"RT":3563,"time": "2018-08-15 01:46:29pm", "schedule_type": "STATIC", "schedule_name": "random_4", "is_biased_choice":true,"side_choice": "RIGHT", "trial_number":53,"observed_reward":0,"unobserved_reward":0},{"RT":3020,"time": "2018-08-15 01:46:32pm", "schedule_type": "STATIC", "schedule_name": "random_4", "is_biased_choice":true,"side_choice": "RIGHT", "trial_number":54,"observed_reward":0,"unobserved_reward":0},{"RT":2887,"time": "2018-08-15 01:46:35pm", "schedule_type": "STATIC", "schedule_name": "random_4", "is_biased_choice":false,"side_choice": "LEFT", "trial_number":55,"observed_reward":0,"unobserved_reward":0},{"RT":2911,"time": "2018-08-15 01:46:37pm", "schedule_type": "STATIC", "schedule_name": "random_4", "is_biased_choice":false,"side_choice": "LEFT", "trial_number":56,"observed_reward":0,"unobserved_reward":0},{"RT":2539,"time": "2018-08-15 01:46:40pm", "schedule_type": "STATIC", "schedule_name": "random_4", "is_biased_choice":true,"side_choice": "RIGHT", "trial_number":57,"observed_reward":1,"unobserved_reward":0},{"RT":3154,"time": "2018-08-15 01:46:44pm", "schedule_type": "STATIC", "schedule_name": "random_4", "is_biased_choice":true,"side_choice": "RIGHT", "trial_number":58,"observed_reward":0,"unobserved_reward":0},{"RT":2987,"time": "2018-08-15 01:46:46pm", "schedule_type": "STATIC", "schedule_name": "random_4", "is_biased_choice":false,"side_choice": "LEFT", "trial_number":59,"observed_reward":1,"unobserved_reward":0},{"RT":3065,"time": "2018-08-15 01:46:50pm", "schedule_type": "STATIC", "schedule_name": "random_4", "is_biased_choice":false,"side_choice": "LEFT", "trial_number":60,"observed_reward":1,"unobserved_reward":1},{"RT":3187,"time": "2018-08-15 01:46:52pm", "schedule_type": "STATIC", "schedule_name": "random_4", "is_biased_choice":false,"side_choice": "LEFT", "trial_number":61,"observed_reward":0,"unobserved_reward":0},{"RT":3117,"time": "2018-08-15 01:46:56pm", "schedule_type": "STATIC", "schedule_name": "random_4", "is_biased_choice":true,"side_choice": "RIGHT", "trial_number":62,"observed_reward":1,"unobserved_reward":1},{"RT":3356,"time": "2018-08-15 01:46:59pm", "schedule_type": "STATIC", "schedule_name": "random_4", "is_biased_choice":false,"side_choice": "LEFT", "trial_number":63,"observed_reward":0,"unobserved_reward":0},{"RT":3124,"time": "2018-08-15 01:47:02pm", "schedule_type": "STATIC", "schedule_name": "random_4", "is_biased_choice":false,"side_choice": "LEFT", "trial_number":64,"observed_reward":0,"unobserved_reward":0},{"RT":2982,"time": "2018-08-15 01:47:05pm", "schedule_type": "STATIC", "schedule_name": "random_4", "is_biased_choice":true,"side_choice": "RIGHT", "trial_number":65,"observed_reward":0,"unobserved_reward":0},{"RT":2714,"time": "2018-08-15 01:47:08pm", "schedule_type": "STATIC", "schedule_name": "random_4", "is_biased_choice":true,"side_choice": "RIGHT", "trial_number":66,"observed_reward":0,"unobserved_reward":1},{"RT":2614,"time": "2018-08-15 01:47:10pm", "schedule_type": "STATIC", "schedule_name": "random_4", "is_biased_choice":false,"side_choice": "LEFT", "trial_number":67,"observed_reward":0,"unobserved_reward":0},{"RT":2623,"time": "2018-08-15 01:47:13pm", "schedule_type": "STATIC", "schedule_name": "random_4", "is_biased_choice":false,"side_choice": "LEFT", "trial_number":68,"observed_reward":0,"unobserved_reward":1},{"RT":2559,"time": "2018-08-15 01:47:15pm", "schedule_type": "STATIC", "schedule_name": "random_4", "is_biased_choice":true,"side_choice": "RIGHT", "trial_number":69,"observed_reward":0,"unobserved_reward":0},{"RT":2760,"time": "2018-08-15 01:47:18pm", "schedule_type": "STATIC", "schedule_name": "random_4", "is_biased_choice":false,"side_choice": "LEFT", "trial_number":70,"observed_reward":1,"unobserved_reward":0},{"RT":3383,"time": "2018-08-15 01:47:22pm", "schedule_type": "STATIC", "schedule_name": "random_4", "is_biased_choice":false,"side_choice": "LEFT", "trial_number":71,"observed_reward":0,"unobserved_reward":0},{"RT":2678,"time": "2018-08-15 01:47:24pm", "schedule_type": "STATIC", "schedule_name": "random_4", "is_biased_choice":false,"side_choice": "LEFT", "trial_number":72,"observed_reward":1,"unobserved_reward":0},{"RT":2790,"time": "2018-08-15 01:47:28pm", "schedule_type": "STATIC", "schedule_name": "random_4", "is_biased_choice":false,"side_choice": "LEFT", "trial_number":73,"observed_reward":0,"unobserved_reward":0},{"RT":3023,"time": "2018-08-15 01:47:30pm", "schedule_type": "STATIC", "schedule_name": "random_4", "is_biased_choice":false,"side_choice": "LEFT", "trial_number":74,"observed_reward":0,"unobserved_reward":0},{"RT":2976,"time": "2018-08-15 01:47:33pm", "schedule_type": "STATIC", "schedule_name": "random_4", "is_biased_choice":false,"side_choice": "LEFT", "trial_number":75,"observed_reward":0,"unobserved_reward":0},{"RT":2752,"time": "2018-08-15 01:47:36pm", "schedule_type": "STATIC", "schedule_name": "random_4", "is_biased_choice":false,"side_choice": "LEFT", "trial_number":76,"observed_reward":0,"unobserved_reward":0},{"RT":2621,"time": "2018-08-15 01:47:38pm", "schedule_type": "STATIC", "schedule_name": "random_4", "is_biased_choice":false,"side_choice": "LEFT", "trial_number":77,"observed_reward":0,"unobserved_reward":0},{"RT":2672,"time": "2018-08-15 01:47:41pm", "schedule_type": "STATIC", "schedule_name": "random_4", "is_biased_choice":false,"side_choice": "LEFT", "trial_number":78,"observed_reward":0,"unobserved_reward":0},{"RT":2528,"time": "2018-08-15 01:47:44pm", "schedule_type": "STATIC", "schedule_name": "random_4", "is_biased_choice":true,"side_choice": "RIGHT", "trial_number":79,"observed_reward":0,"unobserved_reward":0},{"RT":2654,"time": "2018-08-15 01:47:46pm", "schedule_type": "STATIC", "schedule_name": "random_4", "is_biased_choice":false,"side_choice": "LEFT", "trial_number":80,"observed_reward":0,"unobserved_reward":0},{"RT":2654,"time": "2018-08-15 01:47:49pm", "schedule_type": "STATIC", "schedule_name": "random_4", "is_biased_choice":true,"side_choice": "RIGHT", "trial_number":81,"observed_reward":1,"unobserved_reward":1},{"RT":2909,"time": "2018-08-15 01:47:52pm", "schedule_type": "STATIC", "schedule_name": "random_4", "is_biased_choice":true,"side_choice": "RIGHT", "trial_number":82,"observed_reward":1,"unobserved_reward":0},{"RT":2835,"time": "2018-08-15 01:47:55pm", "schedule_type": "STATIC", "schedule_name": "random_4", "is_biased_choice":false,"side_choice": "LEFT", "trial_number":83,"observed_reward":0,"unobserved_reward":0},{"RT":2744,"time": "2018-08-15 01:47:57pm", "schedule_type": "STATIC", "schedule_name": "random_4", "is_biased_choice":true,"side_choice": "RIGHT", "trial_number":84,"observed_reward":0,"unobserved_reward":1},{"RT":2589,"time": "2018-08-15 01:48:00pm", "schedule_type": "STATIC", "schedule_name": "random_4", "is_biased_choice":false,"side_choice": "LEFT", "trial_number":85,"observed_reward":0,"unobserved_reward":0},{"RT":2647,"time": "2018-08-15 01:48:03pm", "schedule_type": "STATIC", "schedule_name": "random_4", "is_biased_choice":false,"side_choice": "LEFT", "trial_number":86,"observed_reward":0,"unobserved_reward":0},{"RT":2425,"time": "2018-08-15 01:48:05pm", "schedule_type": "STATIC", "schedule_name": "random_4", "is_biased_choice":true,"side_choice": "RIGHT", "trial_number":87,"observed_reward":0,"unobserved_reward":0},{"RT":2590,"time": "2018-08-15 01:48:08pm", "schedule_type": "STATIC", "schedule_name": "random_4", "is_biased_choice":true,"side_choice": "RIGHT", "trial_number":88,"observed_reward":1,"unobserved_reward":0},{"RT":2802,"time": "2018-08-15 01:48:11pm", "schedule_type": "STATIC", "schedule_name": "random_4", "is_biased_choice":true,"side_choice": "RIGHT", "trial_number":89,"observed_reward":0,"unobserved_reward":0},{"RT":2982,"time": "2018-08-15 01:48:14pm", "schedule_type": "STATIC", "schedule_name": "random_4", "is_biased_choice":false,"side_choice": "LEFT", "trial_number":90,"observed_reward":0,"unobserved_reward":0},{"RT":2587,"time": "2018-08-15 01:48:16pm", "schedule_type": "STATIC", "schedule_name": "random_4", "is_biased_choice":true,"side_choice": "RIGHT", "trial_number":91,"observed_reward":0,"unobserved_reward":0},{"RT":2596,"time": "2018-08-15 01:48:19pm", "schedule_type": "STATIC", "schedule_name": "random_4", "is_biased_choice":false,"side_choice": "LEFT", "trial_number":92,"observed_reward":1,"unobserved_reward":0},{"RT":2640,"time": "2018-08-15 01:48:21pm", "schedule_type": "STATIC", "schedule_name": "random_4", "is_biased_choice":false,"side_choice": "LEFT", "trial_number":93,"observed_reward":1,"unobserved_reward":1},{"RT":2852,"time": "2018-08-15 01:48:24pm", "schedule_type": "STATIC", "schedule_name": "random_4", "is_biased_choice":false,"side_choice": "LEFT", "trial_number":94,"observed_reward":0,"unobserved_reward":1},{"RT":2515,"time": "2018-08-15 01:48:28pm", "schedule_type": "STATIC", "schedule_name": "random_4", "is_biased_choice":true,"side_choice": "RIGHT", "trial_number":95,"observed_reward":0,"unobserved_reward":0},{"RT":3443,"time": "2018-08-15 01:48:30pm", "schedule_type": "STATIC", "schedule_name": "random_4", "is_biased_choice":true,"side_choice": "RIGHT", "trial_number":96,"observed_reward":0,"unobserved_reward":0},{"RT":4895,"time": "2018-08-15 01:48:35pm", "schedule_type": "STATIC", "schedule_name": "random_4", "is_biased_choice":false,"side_choice": "LEFT", "trial_number":97,"observed_reward":1,"unobserved_reward":0},{"RT":4074,"time": "2018-08-15 01:48:39pm", "schedule_type": "STATIC", "schedule_name": "random_4", "is_biased_choice":true,"side_choice": "RIGHT", "trial_number":98,"observed_reward":0,"unobserved_reward":1},{"RT":2788,"time": "2018-08-15 01:48:42pm", "schedule_type": "STATIC", "schedule_name": "random_4", "is_biased_choice":false,"side_choice": "LEFT", "trial_number":99,"observed_reward":0,"unobserved_reward":0},