[{"RT":4485,"time": "2018-08-15 03:37:37pm", "schedule_type": "STATIC", "schedule_name": "random_4", "is_biased_choice":false,"side_choice": "RIGHT", "trial_number":0,"observed_reward":0,"unobserved_reward":1},{"RT":3182,"time": "2018-08-15 03:37:40pm", "schedule_type": "STATIC", "schedule_name": "random_4", "is_biased_choice":true,"side_choice": "LEFT", "trial_number":1,"observed_reward":0,"unobserved_reward":0},{"RT":2793,"time": "2018-08-15 03:37:42pm", "schedule_type": "STATIC", "schedule_name": "random_4", "is_biased_choice":false,"side_choice": "RIGHT", "trial_number":2,"observed_reward":0,"unobserved_reward":1},{"RT":3024,"time": "2018-08-15 03:37:46pm", "schedule_type": "STATIC", "schedule_name": "random_4", "is_biased_choice":true,"side_choice": "LEFT", "trial_number":3,"observed_reward":1,"unobserved_reward":0},{"RT":2656,"time": "2018-08-15 03:37:48pm", "schedule_type": "STATIC", "schedule_name": "random_4", "is_biased_choice":true,"side_choice": "LEFT", "trial_number":4,"observed_reward":0,"unobserved_reward":0},{"RT":3439,"time": "2018-08-15 03:37:51pm", "schedule_type": "STATIC", "schedule_name": "random_4", "is_biased_choice":false,"side_choice": "RIGHT", "trial_number":5,"observed_reward":0,"unobserved_reward":0},{"RT":4289,"time": "2018-08-15 03:37:56pm", "schedule_type": "STATIC", "schedule_name": "random_4", "is_biased_choice":true,"side_choice": "LEFT", "trial_number":6,"observed_reward":1,"unobserved_reward":0},{"RT":3824,"time": "2018-08-15 03:37:59pm", "schedule_type": "STATIC", "schedule_name": "random_4", "is_biased_choice":true,"side_choice": "LEFT", "trial_number":7,"observed_reward":0,"unobserved_reward":1},{"RT":3088,"time": "2018-08-15 03:38:03pm", "schedule_type": "STATIC", "schedule_name": "random_4", "is_biased_choice":true,"side_choice": "LEFT", "trial_number":8,"observed_reward":0,"unobserved_reward":1},{"RT":2488,"time": "2018-08-15 03:38:05pm", "schedule_type": "STATIC", "schedule_name": "random_4", "is_biased_choice":false,"side_choice": "RIGHT", "trial_number":9,"observed_reward":0,"unobserved_reward":0},{"RT":2768,"time": "2018-08-15 03:38:08pm", "schedule_type": "STATIC", "schedule_name": "random_4", "is_biased_choice":true,"side_choice": "LEFT", "trial_number":10,"observed_reward":1,"unobserved_reward":1},{"RT":3751,"time": "2018-08-15 03:38:12pm", "schedule_type": "STATIC", "schedule_name": "random_4", "is_biased_choice":true,"side_choice": "LEFT", "trial_number":11,"observed_reward":0,"unobserved_reward":0},{"RT":2920,"time": "2018-08-15 03:38:15pm", "schedule_type": "STATIC", "schedule_name": "random_4", "is_biased_choice":false,"side_choice": "RIGHT", "trial_number":12,"observed_reward":1,"unobserved_reward":1},{"RT":2432,"time": "2018-08-15 03:38:17pm", "schedule_type": "STATIC", "schedule_name": "random_4", "is_biased_choice":false,"side_choice": "RIGHT", "trial_number":13,"observed_reward":0,"unobserved_reward":1},{"RT":2833,"time": "2018-08-15 03:38:20pm", "schedule_type": "STATIC", "schedule_name": "random_4", "is_biased_choice":true,"side_choice": "LEFT", "trial_number":14,"observed_reward":0,"unobserved_reward":0},{"RT":2743,"time": "2018-08-15 03:38:23pm", "schedule_type": "STATIC", "schedule_name": "random_4", "is_biased_choice":false,"side_choice": "RIGHT", "trial_number":15,"observed_reward":0,"unobserved_reward":0},{"RT":2536,"time": "2018-08-15 03:38:25pm", "schedule_type": "STATIC", "schedule_name": "random_4", "is_biased_choice":true,"side_choice": "LEFT", "trial_number":16,"observed_reward":0,"unobserved_reward":0},{"RT":2408,"time": "2018-08-15 03:38:28pm", "schedule_type": "STATIC", "schedule_name": "random_4", "is_biased_choice":false,"side_choice": "RIGHT", "trial_number":17,"observed_reward":0,"unobserved_reward":0},{"RT":16849,"time": "2018-08-15 03:38:45pm", "schedule_type": "STATIC", "schedule_name": "random_4", "is_biased_choice":true,"side_choice": "LEFT", "trial_number":18,"observed_reward":0,"unobserved_reward":0},{"RT":5184,"time": "2018-08-15 03:38:50pm", "schedule_type": "STATIC", "schedule_name": "random_4", "is_biased_choice":false,"side_choice": "RIGHT", "trial_number":19,"observed_reward":1,"unobserved_reward":0},{"RT":4247,"time": "2018-08-15 03:38:54pm", "schedule_type": "STATIC", "schedule_name": "random_4", "is_biased_choice":false,"side_choice": "RIGHT", "trial_number":20,"observed_reward":0,"unobserved_reward":0},{"RT":13304,"time": "2018-08-15 03:39:07pm", "schedule_type": "STATIC", "schedule_name": "random_4", "is_biased_choice":true,"side_choice": "LEFT", "trial_number":21,"observed_reward":1,"unobserved_reward":0},{"RT":5472,"time": "2018-08-15 03:39:13pm", "schedule_type": "STATIC", "schedule_name": "random_4", "is_biased_choice":true,"side_choice": "LEFT", "trial_number":22,"observed_reward":0,"unobserved_reward":1},{"RT":4672,"time": "2018-08-15 03:39:18pm", "schedule_type": "STATIC", "schedule_name": "random_4", "is_biased_choice":true,"side_choice": "LEFT", "trial_number":23,"observed_reward":1,"unobserved_reward":0},{"RT":3368,"time": "2018-08-15 03:39:21pm", "schedule_type": "STATIC", "schedule_name": "random_4", "is_biased_choice":false,"side_choice": "RIGHT", "trial_number":24,"observed_reward":0,"unobserved_reward":0},{"RT":2896,"time": "2018-08-15 03:39:24pm", "schedule_type": "STATIC", "schedule_name": "random_4", "is_biased_choice":true,"side_choice": "LEFT", "trial_number":25,"observed_reward":1,"unobserved_reward":1},{"RT":14616,"time": "2018-08-15 03:39:38pm", "schedule_type": "STATIC", "schedule_name": "random_4", "is_biased_choice":true,"side_choice": "LEFT", "trial_number":26,"observed_reward":0,"unobserved_reward":0},{"RT":2808,"time": "2018-08-15 03:39:41pm", "schedule_type": "STATIC", "schedule_name": "random_4", "is_biased_choice":false,"side_choice": "RIGHT", "trial_number":27,"observed_reward":0,"unobserved_reward":0},{"RT":2712,"time": "2018-08-15 03:39:44pm", "schedule_type": "STATIC", "schedule_name": "random_4", "is_biased_choice":true,"side_choice": "LEFT", "trial_number":28,"observed_reward":1,"unobserved_reward":0},{"RT":4392,"time": "2018-08-15 03:39:48pm", "schedule_type": "STATIC", "schedule_name": "random_4", "is_biased_choice":true,"side_choice": "LEFT", "trial_number":29,"observed_reward":0,"unobserved_reward":0},{"RT":4528,"time": "2018-08-15 03:39:53pm", "schedule_type": "STATIC", "schedule_name": "random_4", "is_biased_choice":true,"side_choice": "LEFT", "trial_number":30,"observed_reward":0,"unobserved_reward":0},{"RT":4535,"time": "2018-08-15 03:39:57pm", "schedule_type": "STATIC", "schedule_name": "random_4", "is_biased_choice":false,"side_choice": "RIGHT", "trial_number":31,"observed_reward":0,"unobserved_reward":0},{"RT":3633,"time": "2018-08-15 03:40:01pm", "schedule_type": "STATIC", "schedule_name": "random_4", "is_biased_choice":true,"side_choice": "LEFT", "trial_number":32,"observed_reward":0,"unobserved_reward":0},{"RT":2919,"time": "2018-08-15 03:40:04pm", "schedule_type": "STATIC", "schedule_name": "random_4", "is_biased_choice":false,"side_choice": "RIGHT", "trial_number":33,"observed_reward":0,"unobserved_reward":1},{"RT":33385,"time": "2018-08-15 03:40:37pm", "schedule_type": "STATIC", "schedule_name": "random_4", "is_biased_choice":true,"side_choice": "LEFT", "trial_number":34,"observed_reward":1,"unobserved_reward":0},{"RT":3664,"time": "2018-08-15 03:40:41pm", "schedule_type": "STATIC", "schedule_name": "random_4", "is_biased_choice":true,"side_choice": "LEFT", "trial_number":35,"observed_reward":0,"unobserved_reward":0},{"RT":2991,"time": "2018-08-15 03:40:44pm", "schedule_type": "STATIC", "schedule_name": "random_4", "is_biased_choice":false,"side_choice": "RIGHT", "trial_number":36,"observed_reward":0,"unobserved_reward":0},{"RT":2296,"time": "2018-08-15 03:40:46pm", "schedule_type": "STATIC", "schedule_name": "random_4", "is_biased_choice":true,"side_choice": "LEFT", "trial_number":37,"observed_reward":0,"unobserved_reward":1},{"RT":2845,"time": "2018-08-15 03:40:49pm", "schedule_type": "STATIC", "schedule_name": "random_4", "is_biased_choice":false,"side_choice": "RIGHT", "trial_number":38,"observed_reward":1,"unobserved_reward":0},{"RT":4083,"time": "2018-08-15 03:40:53pm", "schedule_type": "STATIC", "schedule_name": "random_4", "is_biased_choice":false,"side_choice": "RIGHT", "trial_number":39,"observed_reward":0,"unobserved_reward":1},{"RT":2673,"time": "2018-08-15 03:40:56pm", "schedule_type": "STATIC", "schedule_name": "random_4", "is_biased_choice":true,"side_choice": "LEFT", "trial_number":40,"observed_reward":1,"unobserved_reward":0},{"RT":3015,"time": "2018-08-15 03:40:59pm", "schedule_type": "STATIC", "schedule_name": "random_4", "is_biased_choice":true,"side_choice": "LEFT", "trial_number":41,"observed_reward":1,"unobserved_reward":0},{"RT":2601,"time": "2018-08-15 03:41:01pm", "schedule_type": "STATIC", "schedule_name": "random_4", "is_biased_choice":true,"side_choice": "LEFT", "trial_number":42,"observed_reward":0,"unobserved_reward":1},{"RT":2768,"time": "2018-08-15 03:41:04pm", "schedule_type": "STATIC", "schedule_name": "random_4", "is_biased_choice":false,"side_choice": "RIGHT", "trial_number":43,"observed_reward":0,"unobserved_reward":0},{"RT":2680,"time": "2018-08-15 03:41:07pm", "schedule_type": "STATIC", "schedule_name": "random_4", "is_biased_choice":true,"side_choice": "LEFT", "trial_number":44,"observed_reward":0,"unobserved_reward":1},{"RT":14224,"time": "2018-08-15 03:41:21pm", "schedule_type": "STATIC", "schedule_name": "random_4", "is_biased_choice":false,"side_choice": "RIGHT", "trial_number":45,"observed_reward":1,"unobserved_reward":0},{"RT":2712,"time": "2018-08-15 03:41:24pm", "schedule_type": "STATIC", "schedule_name": "random_4", "is_biased_choice":false,"side_choice": "RIGHT", "trial_number":46,"observed_reward":1,"unobserved_reward":0},{"RT":2552,"time": "2018-08-15 03:41:26pm", "schedule_type": "STATIC", "schedule_name": "random_4", "is_biased_choice":false,"side_choice": "RIGHT", "trial_number":47,"observed_reward":0,"unobserved_reward":0},{"RT":3528,"time": "2018-08-15 03:41:30pm", "schedule_type": "STATIC", "schedule_name": "random_4", "is_biased_choice":true,"side_choice": "LEFT", "trial_number":48,"observed_reward":0,"unobserved_reward":0},{"RT":3000,"time": "2018-08-15 03:41:33pm", "schedule_type": "STATIC", "schedule_name": "random_4", "is_biased_choice":false,"side_choice": "RIGHT", "trial_number":49,"observed_reward":0,"unobserved_reward":0},{"RT":2848,"time": "2018-08-15 03:41:36pm", "schedule_type": "STATIC", "schedule_name": "random_4", "is_biased_choice":true,"side_choice": "LEFT", "trial_number":50,"observed_reward":0,"unobserved_reward":0},{"RT":2967,"time": "2018-08-15 03:41:38pm", "schedule_type": "STATIC", "schedule_name": "random_4", "is_biased_choice":false,"side_choice": "RIGHT", "trial_number":51,"observed_reward":0,"unobserved_reward":0},{"RT":2377,"time": "2018-08-15 03:41:41pm", "schedule_type": "STATIC", "schedule_name": "random_4", "is_biased_choice":true,"side_choice": "LEFT", "trial_number":52,"observed_reward":0,"unobserved_reward":0},{"RT":3104,"time": "2018-08-15 03:41:44pm", "schedule_type": "STATIC", "schedule_name": "random_4", "is_biased_choice":false,"side_choice": "RIGHT", "trial_number":53,"observed_reward":0,"unobserved_reward":0},{"RT":2815,"time": "2018-08-15 03:41:47pm", "schedule_type": "STATIC", "schedule_name": "random_4", "is_biased_choice":true,"side_choice": "LEFT", "trial_number":54,"observed_reward":0,"unobserved_reward":0},{"RT":10081,"time": "2018-08-15 03:41:57pm", "schedule_type": "STATIC", "schedule_name": "random_4", "is_biased_choice":true,"side_choice": "LEFT", "trial_number":55,"observed_reward":0,"unobserved_reward":0},{"RT":4672,"time": "2018-08-15 03:42:02pm", "schedule_type": "STATIC", "schedule_name": "random_4", "is_biased_choice":true,"side_choice": "LEFT", "trial_number":56,"observed_reward":0,"unobserved_reward":0},{"RT":2776,"time": "2018-08-15 03:42:05pm", "schedule_type": "STATIC", "schedule_name": "random_4", "is_biased_choice":false,"side_choice": "RIGHT", "trial_number":57,"observed_reward":0,"unobserved_reward":1},{"RT":2416,"time": "2018-08-15 03:42:07pm", "schedule_type": "STATIC", "schedule_name": "random_4", "is_biased_choice":true,"side_choice": "LEFT", "trial_number":58,"observed_reward":0,"unobserved_reward":0},{"RT":4008,"time": "2018-08-15 03:42:11pm", "schedule_type": "STATIC", "schedule_name": "random_4", "is_biased_choice":false,"side_choice": "RIGHT", "trial_number":59,"observed_reward":1,"unobserved_reward":0},{"RT":3080,"time": "2018-08-15 03:42:14pm", "schedule_type": "STATIC", "schedule_name": "random_4", "is_biased_choice":false,"side_choice": "RIGHT", "trial_number":60,"observed_reward":1,"unobserved_reward":1},{"RT":2617,"time": "2018-08-15 03:42:16pm", "schedule_type": "STATIC", "schedule_name": "random_4", "is_biased_choice":false,"side_choice": "RIGHT", "trial_number":61,"observed_reward":0,"unobserved_reward":0},{"RT":2471,"time": "2018-08-15 03:42:19pm", "schedule_type": "STATIC", "schedule_name": "random_4", "is_biased_choice":true,"side_choice": "LEFT", "trial_number":62,"observed_reward":1,"unobserved_reward":1},{"RT":3160,"time": "2018-08-15 03:42:22pm", "schedule_type": "STATIC", "schedule_name": "random_4", "is_biased_choice":true,"side_choice": "LEFT", "trial_number":63,"observed_reward":0,"unobserved_reward":0},{"RT":2832,"time": "2018-08-15 03:42:25pm", "schedule_type": "STATIC", "schedule_name": "random_4", "is_biased_choice":false,"side_choice": "RIGHT", "trial_number":64,"observed_reward":0,"unobserved_reward":0},{"RT":2800,"time": "2018-08-15 03:42:28pm", "schedule_type": "STATIC", "schedule_name": "random_4", "is_biased_choice":true,"side_choice": "LEFT", "trial_number":65,"observed_reward":0,"unobserved_reward":0},{"RT":8368,"time": "2018-08-15 03:42:36pm", "schedule_type": "STATIC", "schedule_name": "random_4", "is_biased_choice":false,"side_choice": "RIGHT", "trial_number":66,"observed_reward":1,"unobserved_reward":0},{"RT":2745,"time": "2018-08-15 03:42:39pm", "schedule_type": "STATIC", "schedule_name": "random_4", "is_biased_choice":false,"side_choice": "RIGHT", "trial_number":67,"observed_reward":0,"unobserved_reward":0},{"RT":2824,"time": "2018-08-15 03:42:42pm", "schedule_type": "STATIC", "schedule_name": "random_4", "is_biased_choice":true,"side_choice": "LEFT", "trial_number":68,"observed_reward":1,"unobserved_reward":0},{"RT":2495,"time": "2018-08-15 03:42:44pm", "schedule_type": "STATIC", "schedule_name": "random_4", "is_biased_choice":true,"side_choice": "LEFT", "trial_number":69,"observed_reward":0,"unobserved_reward":0},{"RT":2512,"time": "2018-08-15 03:42:47pm", "schedule_type": "STATIC", "schedule_name": "random_4", "is_biased_choice":false,"side_choice": "RIGHT", "trial_number":70,"observed_reward":1,"unobserved_reward":0},{"RT":2993,"time": "2018-08-15 03:42:50pm", "schedule_type": "STATIC", "schedule_name": "random_4", "is_biased_choice":false,"side_choice": "RIGHT", "trial_number":71,"observed_reward":0,"unobserved_reward":0},{"RT":3063,"time": "2018-08-15 03:42:53pm", "schedule_type": "STATIC", "schedule_name": "random_4", "is_biased_choice":false,"side_choice": "RIGHT", "trial_number":72,"observed_reward":1,"unobserved_reward":0},{"RT":5248,"time": "2018-08-15 03:43:24pm", "schedule_type": "STATIC", "schedule_name": "random_4", "is_biased_choice":true,"side_choice": "LEFT", "trial_number":73,"observed_reward":0,"unobserved_reward":0},{"RT":2392,"time": "2018-08-15 03:43:26pm", "schedule_type": "STATIC", "schedule_name": "random_4", "is_biased_choice":false,"side_choice": "RIGHT", "trial_number":74,"observed_reward":0,"unobserved_reward":0},{"RT":2512,"time": "2018-08-15 03:43:29pm", "schedule_type": "STATIC", "schedule_name": "random_4", "is_biased_choice":true,"side_choice": "LEFT", "trial_number":75,"observed_reward":0,"unobserved_reward":0},{"RT":2416,"time": "2018-08-15 03:43:31pm", "schedule_type": "STATIC", "schedule_name": "random_4", "is_biased_choice":false,"side_choice": "RIGHT", "trial_number":76,"observed_reward":0,"unobserved_reward":0},{"RT":2279,"time": "2018-08-15 03:43:33pm", "schedule_type": "STATIC", "schedule_name": "random_4", "is_biased_choice":false,"side_choice": "RIGHT", "trial_number":77,"observed_reward":0,"unobserved_reward":0},{"RT":2585,"time": "2018-08-15 03:43:36pm", "schedule_type": "STATIC", "schedule_name": "random_4", "is_biased_choice":false,"side_choice": "RIGHT", "trial_number":78,"observed_reward":0,"unobserved_reward":0},{"RT":3223,"time": "2018-08-15 03:43:40pm", "schedule_type": "STATIC", "schedule_name": "random_4", "is_biased_choice":false,"side_choice": "RIGHT", "trial_number":79,"observed_reward":0,"unobserved_reward":0},{"RT":2232,"time": "2018-08-15 03:43:41pm", "schedule_type": "STATIC", "schedule_name": "random_4", "is_biased_choice":true,"side_choice": "LEFT", "trial_number":80,"observed_reward":0,"unobserved_reward":0},{"RT":3568,"time": "2018-08-15 03:43:45pm", "schedule_type": "STATIC", "schedule_name": "random_4", "is_biased_choice":false,"side_choice": "RIGHT", "trial_number":81,"observed_reward":1,"unobserved_reward":1},{"RT":2809,"time": "2018-08-15 03:43:48pm", "schedule_type": "STATIC", "schedule_name": "random_4", "is_biased_choice":false,"side_choice": "RIGHT", "trial_number":82,"observed_reward":0,"unobserved_reward":1},{"RT":2712,"time": "2018-08-15 03:43:51pm", "schedule_type": "STATIC", "schedule_name": "random_4", "is_biased_choice":true,"side_choice": "LEFT", "trial_number":83,"observed_reward":0,"unobserved_reward":0},{"RT":2448,"time": "2018-08-15 03:43:53pm", "schedule_type": "STATIC", "schedule_name": "random_4", "is_biased_choice":false,"side_choice": "RIGHT", "trial_number":84,"observed_reward":1,"unobserved_reward":0},{"RT":2671,"time": "2018-08-15 03:43:56pm", "schedule_type": "STATIC", "schedule_name": "random_4", "is_biased_choice":false,"side_choice": "RIGHT", "trial_number":85,"observed_reward":0,"unobserved_reward":0},{"RT":2608,"time": "2018-08-15 03:43:58pm", "schedule_type": "STATIC", "schedule_name": "random_4", "is_biased_choice":false,"side_choice": "RIGHT", "trial_number":86,"observed_reward":0,"unobserved_reward":0},{"RT":2529,"time": "2018-08-15 03:44:01pm", "schedule_type": "STATIC", "schedule_name": "random_4", "is_biased_choice":true,"side_choice": "LEFT", "trial_number":87,"observed_reward":0,"unobserved_reward":0},{"RT":2455,"time": "2018-08-15 03:44:03pm", "schedule_type": "STATIC", "schedule_name": "random_4", "is_biased_choice":false,"side_choice": "RIGHT", "trial_number":88,"observed_reward":0,"unobserved_reward":1},{"RT":2456,"time": "2018-08-15 03:44:06pm", "schedule_type": "STATIC", "schedule_name": "random_4", "is_biased_choice":true,"side_choice": "LEFT", "trial_number":89,"observed_reward":0,"unobserved_reward":0},{"RT":2320,"time": "2018-08-15 03:44:08pm", "schedule_type": "STATIC", "schedule_name": "random_4", "is_biased_choice":false,"side_choice": "RIGHT", "trial_number":90,"observed_reward":0,"unobserved_reward":0},{"RT":2673,"time": "2018-08-15 03:44:11pm", "schedule_type": "STATIC", "schedule_name": "random_4", "is_biased_choice":true,"side_choice": "LEFT", "trial_number":91,"observed_reward":0,"unobserved_reward":0},{"RT":2639,"time": "2018-08-15 03:44:13pm", "schedule_type": "STATIC", "schedule_name": "random_4", "is_biased_choice":true,"side_choice": "LEFT", "trial_number":92,"observed_reward":0,"unobserved_reward":1},