[{"RT":3387,"time": "2018-08-15 05:52:12pm", "schedule_type": "STATIC", "schedule_name": "random_13", "is_biased_choice":true,"side_choice": "LEFT", "trial_number":0,"observed_reward":0,"unobserved_reward":1},{"RT":2940,"time": "2018-08-15 05:52:15pm", "schedule_type": "STATIC", "schedule_name": "random_13", "is_biased_choice":false,"side_choice": "RIGHT", "trial_number":1,"observed_reward":1,"unobserved_reward":0},{"RT":2629,"time": "2018-08-15 05:52:17pm", "schedule_type": "STATIC", "schedule_name": "random_13", "is_biased_choice":false,"side_choice": "RIGHT", "trial_number":2,"observed_reward":1,"unobserved_reward":1},{"RT":2407,"time": "2018-08-15 05:52:20pm", "schedule_type": "STATIC", "schedule_name": "random_13", "is_biased_choice":false,"side_choice": "RIGHT", "trial_number":3,"observed_reward":0,"unobserved_reward":0},{"RT":2299,"time": "2018-08-15 05:52:22pm", "schedule_type": "STATIC", "schedule_name": "random_13", "is_biased_choice":true,"side_choice": "LEFT", "trial_number":4,"observed_reward":0,"unobserved_reward":1},{"RT":2437,"time": "2018-08-15 05:52:25pm", "schedule_type": "STATIC", "schedule_name": "random_13", "is_biased_choice":false,"side_choice": "RIGHT", "trial_number":5,"observed_reward":1,"unobserved_reward":0},{"RT":2158,"time": "2018-08-15 05:52:27pm", "schedule_type": "STATIC", "schedule_name": "random_13", "is_biased_choice":false,"side_choice": "RIGHT", "trial_number":6,"observed_reward":1,"unobserved_reward":0},{"RT":2458,"time": "2018-08-15 05:52:29pm", "schedule_type": "STATIC", "schedule_name": "random_13", "is_biased_choice":false,"side_choice": "RIGHT", "trial_number":7,"observed_reward":1,"unobserved_reward":1},{"RT":2207,"time": "2018-08-15 05:52:31pm", "schedule_type": "STATIC", "schedule_name": "random_13", "is_biased_choice":false,"side_choice": "RIGHT", "trial_number":8,"observed_reward":1,"unobserved_reward":0},{"RT":2197,"time": "2018-08-15 05:52:34pm", "schedule_type": "STATIC", "schedule_name": "random_13", "is_biased_choice":false,"side_choice": "RIGHT", "trial_number":9,"observed_reward":0,"unobserved_reward":0},{"RT":2577,"time": "2018-08-15 05:52:36pm", "schedule_type": "STATIC", "schedule_name": "random_13", "is_biased_choice":false,"side_choice": "RIGHT", "trial_number":10,"observed_reward":0,"unobserved_reward":0},{"RT":2398,"time": "2018-08-15 05:52:39pm", "schedule_type": "STATIC", "schedule_name": "random_13", "is_biased_choice":false,"side_choice": "RIGHT", "trial_number":11,"observed_reward":1,"unobserved_reward":0},{"RT":2388,"time": "2018-08-15 05:52:41pm", "schedule_type": "STATIC", "schedule_name": "random_13", "is_biased_choice":false,"side_choice": "RIGHT", "trial_number":12,"observed_reward":0,"unobserved_reward":1},{"RT":3271,"time": "2018-08-15 05:52:44pm", "schedule_type": "STATIC", "schedule_name": "random_13", "is_biased_choice":false,"side_choice": "RIGHT", "trial_number":13,"observed_reward":0,"unobserved_reward":0},{"RT":2216,"time": "2018-08-15 05:52:46pm", "schedule_type": "STATIC", "schedule_name": "random_13", "is_biased_choice":false,"side_choice": "RIGHT", "trial_number":14,"observed_reward":0,"unobserved_reward":0},{"RT":2117,"time": "2018-08-15 05:52:49pm", "schedule_type": "STATIC", "schedule_name": "random_13", "is_biased_choice":true,"side_choice": "LEFT", "trial_number":15,"observed_reward":0,"unobserved_reward":0},{"RT":590724,"time": "2018-08-15 06:02:39pm", "schedule_type": "STATIC", "schedule_name": "random_13", "is_biased_choice":false,"side_choice": "RIGHT", "trial_number":16,"observed_reward":0,"unobserved_reward":1},{"RT":32583,"time": "2018-08-15 06:03:12pm", "schedule_type": "STATIC", "schedule_name": "random_13", "is_biased_choice":true,"side_choice": "LEFT", "trial_number":17,"observed_reward":1,"unobserved_reward":0},{"RT":2738,"time": "2018-08-15 06:03:15pm", "schedule_type": "STATIC", "schedule_name": "random_13", "is_biased_choice":true,"side_choice": "LEFT", "trial_number":18,"observed_reward":0,"unobserved_reward":0},{"RT":2158,"time": "2018-08-15 06:03:17pm", "schedule_type": "STATIC", "schedule_name": "random_13", "is_biased_choice":false,"side_choice": "RIGHT", "trial_number":19,"observed_reward":1,"unobserved_reward":0},{"RT":6220,"time": "2018-08-15 06:03:23pm", "schedule_type": "STATIC", "schedule_name": "random_13", "is_biased_choice":false,"side_choice": "RIGHT", "trial_number":20,"observed_reward":0,"unobserved_reward":0},{"RT":2349,"time": "2018-08-15 06:03:25pm", "schedule_type": "STATIC", "schedule_name": "random_13", "is_biased_choice":true,"side_choice": "LEFT", "trial_number":21,"observed_reward":0,"unobserved_reward":0},{"RT":2177,"time": "2018-08-15 06:03:27pm", "schedule_type": "STATIC", "schedule_name": "random_13", "is_biased_choice":false,"side_choice": "RIGHT", "trial_number":22,"observed_reward":0,"unobserved_reward":0},{"RT":2257,"time": "2018-08-15 06:03:30pm", "schedule_type": "STATIC", "schedule_name": "random_13", "is_biased_choice":true,"side_choice": "LEFT", "trial_number":23,"observed_reward":1,"unobserved_reward":0},{"RT":2096,"time": "2018-08-15 06:03:32pm", "schedule_type": "STATIC", "schedule_name": "random_13", "is_biased_choice":false,"side_choice": "RIGHT", "trial_number":24,"observed_reward":0,"unobserved_reward":0},{"RT":2549,"time": "2018-08-15 06:03:34pm", "schedule_type": "STATIC", "schedule_name": "random_13", "is_biased_choice":false,"side_choice": "RIGHT", "trial_number":25,"observed_reward":0,"unobserved_reward":0},{"RT":2538,"time": "2018-08-15 06:03:37pm", "schedule_type": "STATIC", "schedule_name": "random_13", "is_biased_choice":true,"side_choice": "LEFT", "trial_number":26,"observed_reward":1,"unobserved_reward":0},{"RT":2218,"time": "2018-08-15 06:03:39pm", "schedule_type": "STATIC", "schedule_name": "random_13", "is_biased_choice":true,"side_choice": "LEFT", "trial_number":27,"observed_reward":0,"unobserved_reward":0},{"RT":2629,"time": "2018-08-15 06:03:42pm", "schedule_type": "STATIC", "schedule_name": "random_13", "is_biased_choice":true,"side_choice": "LEFT", "trial_number":28,"observed_reward":0,"unobserved_reward":0},{"RT":3331,"time": "2018-08-15 06:03:45pm", "schedule_type": "STATIC", "schedule_name": "random_13", "is_biased_choice":true,"side_choice": "LEFT", "trial_number":29,"observed_reward":0,"unobserved_reward":1},{"RT":7715,"time": "2018-08-15 06:03:53pm", "schedule_type": "STATIC", "schedule_name": "random_13", "is_biased_choice":true,"side_choice": "LEFT", "trial_number":30,"observed_reward":1,"unobserved_reward":1},{"RT":2389,"time": "2018-08-15 06:03:55pm", "schedule_type": "STATIC", "schedule_name": "random_13", "is_biased_choice":true,"side_choice": "LEFT", "trial_number":31,"observed_reward":0,"unobserved_reward":0},{"RT":2157,"time": "2018-08-15 06:03:57pm", "schedule_type": "STATIC", "schedule_name": "random_13", "is_biased_choice":true,"side_choice": "LEFT", "trial_number":32,"observed_reward":0,"unobserved_reward":0},{"RT":2508,"time": "2018-08-15 06:04:00pm", "schedule_type": "STATIC", "schedule_name": "random_13", "is_biased_choice":true,"side_choice": "LEFT", "trial_number":33,"observed_reward":1,"unobserved_reward":1},{"RT":2227,"time": "2018-08-15 06:04:02pm", "schedule_type": "STATIC", "schedule_name": "random_13", "is_biased_choice":false,"side_choice": "RIGHT", "trial_number":34,"observed_reward":1,"unobserved_reward":1},{"RT":2268,"time": "2018-08-15 06:04:04pm", "schedule_type": "STATIC", "schedule_name": "random_13", "is_biased_choice":false,"side_choice": "RIGHT", "trial_number":35,"observed_reward":0,"unobserved_reward":0},{"RT":2607,"time": "2018-08-15 06:04:07pm", "schedule_type": "STATIC", "schedule_name": "random_13", "is_biased_choice":false,"side_choice": "RIGHT", "trial_number":36,"observed_reward":0,"unobserved_reward":0},{"RT":8198,"time": "2018-08-15 06:04:15pm", "schedule_type": "STATIC", "schedule_name": "random_13", "is_biased_choice":true,"side_choice": "LEFT", "trial_number":37,"observed_reward":1,"unobserved_reward":0},{"RT":2146,"time": "2018-08-15 06:04:17pm", "schedule_type": "STATIC", "schedule_name": "random_13", "is_biased_choice":true,"side_choice": "LEFT", "trial_number":38,"observed_reward":1,"unobserved_reward":1},{"RT":2168,"time": "2018-08-15 06:04:19pm", "schedule_type": "STATIC", "schedule_name": "random_13", "is_biased_choice":true,"side_choice": "LEFT", "trial_number":39,"observed_reward":1,"unobserved_reward":0},{"RT":2328,"time": "2018-08-15 06:04:22pm", "schedule_type": "STATIC", "schedule_name": "random_13", "is_biased_choice":false,"side_choice": "RIGHT", "trial_number":40,"observed_reward":1,"unobserved_reward":0},{"RT":2147,"time": "2018-08-15 06:04:24pm", "schedule_type": "STATIC", "schedule_name": "random_13", "is_biased_choice":true,"side_choice": "LEFT", "trial_number":41,"observed_reward":0,"unobserved_reward":0},{"RT":2317,"time": "2018-08-15 06:04:26pm", "schedule_type": "STATIC", "schedule_name": "random_13", "is_biased_choice":true,"side_choice": "LEFT", "trial_number":42,"observed_reward":0,"unobserved_reward":0},{"RT":28578,"time": "2018-08-15 06:04:55pm", "schedule_type": "STATIC", "schedule_name": "random_13", "is_biased_choice":true,"side_choice": "LEFT", "trial_number":43,"observed_reward":1,"unobserved_reward":1},{"RT":3721,"time": "2018-08-15 06:04:59pm", "schedule_type": "STATIC", "schedule_name": "random_13", "is_biased_choice":true,"side_choice": "LEFT", "trial_number":44,"observed_reward":1,"unobserved_reward":0},{"RT":2307,"time": "2018-08-15 06:05:01pm", "schedule_type": "STATIC", "schedule_name": "random_13", "is_biased_choice":true,"side_choice": "LEFT", "trial_number":45,"observed_reward":0,"unobserved_reward":0},{"RT":2198,"time": "2018-08-15 06:05:03pm", "schedule_type": "STATIC", "schedule_name": "random_13", "is_biased_choice":false,"side_choice": "RIGHT", "trial_number":46,"observed_reward":0,"unobserved_reward":0},{"RT":2297,"time": "2018-08-15 06:05:05pm", "schedule_type": "STATIC", "schedule_name": "random_13", "is_biased_choice":true,"side_choice": "LEFT", "trial_number":47,"observed_reward":0,"unobserved_reward":0},{"RT":2167,"time": "2018-08-15 06:05:08pm", "schedule_type": "STATIC", "schedule_name": "random_13", "is_biased_choice":false,"side_choice": "RIGHT", "trial_number":48,"observed_reward":0,"unobserved_reward":1},{"RT":2187,"time": "2018-08-15 06:05:10pm", "schedule_type": "STATIC", "schedule_name": "random_13", "is_biased_choice":false,"side_choice": "RIGHT", "trial_number":49,"observed_reward":0,"unobserved_reward":0},{"RT":4816,"time": "2018-08-15 06:05:15pm", "schedule_type": "STATIC", "schedule_name": "random_13", "is_biased_choice":true,"side_choice": "LEFT", "trial_number":50,"observed_reward":0,"unobserved_reward":0},{"RT":2649,"time": "2018-08-15 06:05:17pm", "schedule_type": "STATIC", "schedule_name": "random_13", "is_biased_choice":true,"side_choice": "LEFT", "trial_number":51,"observed_reward":0,"unobserved_reward":0},{"RT":2318,"time": "2018-08-15 06:05:19pm", "schedule_type": "STATIC", "schedule_name": "random_13", "is_biased_choice":false,"side_choice": "RIGHT", "trial_number":52,"observed_reward":1,"unobserved_reward":0},{"RT":2157,"time": "2018-08-15 06:05:22pm", "schedule_type": "STATIC", "schedule_name": "random_13", "is_biased_choice":false,"side_choice": "RIGHT", "trial_number":53,"observed_reward":0,"unobserved_reward":0},{"RT":32279,"time": "2018-08-15 06:05:54pm", "schedule_type": "STATIC", "schedule_name": "random_13", "is_biased_choice":false,"side_choice": "RIGHT", "trial_number":54,"observed_reward":0,"unobserved_reward":0},{"RT":2097,"time": "2018-08-15 06:05:56pm", "schedule_type": "STATIC", "schedule_name": "random_13", "is_biased_choice":true,"side_choice": "LEFT", "trial_number":55,"observed_reward":0,"unobserved_reward":0},{"RT":2147,"time": "2018-08-15 06:05:58pm", "schedule_type": "STATIC", "schedule_name": "random_13", "is_biased_choice":false,"side_choice": "RIGHT", "trial_number":56,"observed_reward":0,"unobserved_reward":0},{"RT":2117,"time": "2018-08-15 06:06:00pm", "schedule_type": "STATIC", "schedule_name": "random_13", "is_biased_choice":true,"side_choice": "LEFT", "trial_number":57,"observed_reward":0,"unobserved_reward":0},{"RT":2226,"time": "2018-08-15 06:06:03pm", "schedule_type": "STATIC", "schedule_name": "random_13", "is_biased_choice":true,"side_choice": "LEFT", "trial_number":58,"observed_reward":0,"unobserved_reward":0},{"RT":2086,"time": "2018-08-15 06:06:05pm", "schedule_type": "STATIC", "schedule_name": "random_13", "is_biased_choice":true,"side_choice": "LEFT", "trial_number":59,"observed_reward":0,"unobserved_reward":1},{"RT":4306,"time": "2018-08-15 06:06:09pm", "schedule_type": "STATIC", "schedule_name": "random_13", "is_biased_choice":true,"side_choice": "LEFT", "trial_number":60,"observed_reward":0,"unobserved_reward":0},{"RT":2829,"time": "2018-08-15 06:06:12pm", "schedule_type": "STATIC", "schedule_name": "random_13", "is_biased_choice":false,"side_choice": "RIGHT", "trial_number":61,"observed_reward":0,"unobserved_reward":0},{"RT":2077,"time": "2018-08-15 06:06:14pm", "schedule_type": "STATIC", "schedule_name": "random_13", "is_biased_choice":true,"side_choice": "LEFT", "trial_number":62,"observed_reward":1,"unobserved_reward":0},{"RT":2087,"time": "2018-08-15 06:06:16pm", "schedule_type": "STATIC", "schedule_name": "random_13", "is_biased_choice":true,"side_choice": "LEFT", "trial_number":63,"observed_reward":0,"unobserved_reward":0},{"RT":2156,"time": "2018-08-15 06:06:18pm", "schedule_type": "STATIC", "schedule_name": "random_13", "is_biased_choice":false,"side_choice": "RIGHT", "trial_number":64,"observed_reward":0,"unobserved_reward":0},{"RT":2137,"time": "2018-08-15 06:06:20pm", "schedule_type": "STATIC", "schedule_name": "random_13", "is_biased_choice":false,"side_choice": "RIGHT", "trial_number":65,"observed_reward":0,"unobserved_reward":0},{"RT":2147,"time": "2018-08-15 06:06:22pm", "schedule_type": "STATIC", "schedule_name": "random_13", "is_biased_choice":false,"side_choice": "RIGHT", "trial_number":66,"observed_reward":0,"unobserved_reward":0},{"RT":2518,"time": "2018-08-15 06:06:25pm", "schedule_type": "STATIC", "schedule_name": "random_13", "is_biased_choice":true,"side_choice": "LEFT", "trial_number":67,"observed_reward":0,"unobserved_reward":0},{"RT":2297,"time": "2018-08-15 06:06:27pm", "schedule_type": "STATIC", "schedule_name": "random_13", "is_biased_choice":false,"side_choice": "RIGHT", "trial_number":68,"observed_reward":0,"unobserved_reward":0},{"RT":2207,"time": "2018-08-15 06:06:29pm", "schedule_type": "STATIC", "schedule_name": "random_13", "is_biased_choice":true,"side_choice": "LEFT", "trial_number":69,"observed_reward":0,"unobserved_reward":0},{"RT":3391,"time": "2018-08-15 06:06:33pm", "schedule_type": "STATIC", "schedule_name": "random_13", "is_biased_choice":true,"side_choice": "LEFT", "trial_number":70,"observed_reward":1,"unobserved_reward":0},{"RT":2047,"time": "2018-08-15 06:06:35pm", "schedule_type": "STATIC", "schedule_name": "random_13", "is_biased_choice":false,"side_choice": "RIGHT", "trial_number":71,"observed_reward":0,"unobserved_reward":1},{"RT":2186,"time": "2018-08-15 06:06:37pm", "schedule_type": "STATIC", "schedule_name": "random_13", "is_biased_choice":false,"side_choice": "RIGHT", "trial_number":72,"observed_reward":1,"unobserved_reward":1},{"RT":2157,"time": "2018-08-15 06:06:39pm", "schedule_type": "STATIC", "schedule_name": "random_13", "is_biased_choice":false,"side_choice": "RIGHT", "trial_number":73,"observed_reward":0,"unobserved_reward":0},{"RT":2849,"time": "2018-08-15 06:06:42pm", "schedule_type": "STATIC", "schedule_name": "random_13", "is_biased_choice":true,"side_choice": "LEFT", "trial_number":74,"observed_reward":0,"unobserved_reward":0},{"RT":2108,"time": "2018-08-15 06:06:44pm", "schedule_type": "STATIC", "schedule_name": "random_13", "is_biased_choice":true,"side_choice": "LEFT", "trial_number":75,"observed_reward":1,"unobserved_reward":0},{"RT":2136,"time": "2018-08-15 06:06:46pm", "schedule_type": "STATIC", "schedule_name": "random_13", "is_biased_choice":false,"side_choice": "RIGHT", "trial_number":76,"observed_reward":0,"unobserved_reward":0},{"RT":2277,"time": "2018-08-15 06:06:49pm", "schedule_type": "STATIC", "schedule_name": "random_13", "is_biased_choice":false,"side_choice": "RIGHT", "trial_number":77,"observed_reward":0,"unobserved_reward":0},{"RT":2117,"time": "2018-08-15 06:06:51pm", "schedule_type": "STATIC", "schedule_name": "random_13", "is_biased_choice":false,"side_choice": "RIGHT", "trial_number":78,"observed_reward":0,"unobserved_reward":0},{"RT":2598,"time": "2018-08-15 06:06:53pm", "schedule_type": "STATIC", "schedule_name": "random_13", "is_biased_choice":true,"side_choice": "LEFT", "trial_number":79,"observed_reward":0,"unobserved_reward":0},{"RT":2067,"time": "2018-08-15 06:06:55pm", "schedule_type": "STATIC", "schedule_name": "random_13", "is_biased_choice":true,"side_choice": "LEFT", "trial_number":80,"observed_reward":0,"unobserved_reward":0},{"RT":2106,"time": "2018-08-15 06:06:57pm", "schedule_type": "STATIC", "schedule_name": "random_13", "is_biased_choice":true,"side_choice": "LEFT", "trial_number":81,"observed_reward":1,"unobserved_reward":1},{"RT":2087,"time": "2018-08-15 06:06:59pm", "schedule_type": "STATIC", "schedule_name": "random_13", "is_biased_choice":true,"side_choice": "LEFT", "trial_number":82,"observed_reward":1,"unobserved_reward":0},{"RT":2137,"time": "2018-08-15 06:07:02pm", "schedule_type": "STATIC", "schedule_name": "random_13", "is_biased_choice":true,"side_choice": "LEFT", "trial_number":83,"observed_reward":0,"unobserved_reward":0},{"RT":2327,"time": "2018-08-15 06:07:04pm", "schedule_type": "STATIC", "schedule_name": "random_13", "is_biased_choice":false,"side_choice": "RIGHT", "trial_number":84,"observed_reward":1,"unobserved_reward":0},{"RT":2378,"time": "2018-08-15 06:07:06pm", "schedule_type": "STATIC", "schedule_name": "random_13", "is_biased_choice":false,"side_choice": "RIGHT", "trial_number":85,"observed_reward":0,"unobserved_reward":0},{"RT":2447,"time": "2018-08-15 06:07:09pm", "schedule_type": "STATIC", "schedule_name": "random_13", "is_biased_choice":true,"side_choice": "LEFT", "trial_number":86,"observed_reward":0,"unobserved_reward":0},{"RT":2116,"time": "2018-08-15 06:07:11pm", "schedule_type": "STATIC", "schedule_name": "random_13", "is_biased_choice":false,"side_choice": "RIGHT", "trial_number":87,"observed_reward":1,"unobserved_reward":0},{"RT":2047,"time": "2018-08-15 06:07:13pm", "schedule_type": "STATIC", "schedule_name": "random_13", "is_biased_choice":false,"side_choice": "RIGHT", "trial_number":88,"observed_reward":0,"unobserved_reward":0},{"RT":4395,"time": "2018-08-15 06:07:17pm", "schedule_type": "STATIC", "schedule_name": "random_13", "is_biased_choice":true,"side_choice": "LEFT", "trial_number":89,"observed_reward":0,"unobserved_reward":1},{"RT":2026,"time": "2018-08-15 06:07:19pm", "schedule_type": "STATIC", "schedule_name": "random_13", "is_biased_choice":false,"side_choice": "RIGHT", "trial_number":90,"observed_reward":0,"unobserved_reward":1},{"RT":2268,"time": "2018-08-15 06:07:22pm", "schedule_type": "STATIC", "schedule_name": "random_13", "is_biased_choice":true,"side_choice": "LEFT", "trial_number":91,"observed_reward":0,"unobserved_reward":0},{"RT":2287,"time": "2018-08-15 06:07:24pm", "schedule_type": "STATIC", "schedule_name": "random_13", "is_biased_choice":true,"side_choice": "LEFT", "trial_number":92,"observed_reward":0,"unobserved_reward":0},{"RT":2007,"time": "2018-08-15 06:07:26pm", "schedule_type": "STATIC", "schedule_name": "random_13", "is_biased_choice":false,"side_choice": "RIGHT", "trial_number":93,"observed_reward":0,"unobserved_reward":1},{"RT":2257,"time": "2018-08-15 06:07:28pm", "schedule_type": "STATIC", "schedule_name": "random_13", "is_biased_choice":true,"side_choice": "LEFT", "trial_number":94,"observed_reward":0,"unobserved_reward":0},{"RT":2257,"time": "2018-08-15 06:07:30pm", "schedule_type": "STATIC", "schedule_name": "random_13", "is_biased_choice":false,"side_choice": "RIGHT", "trial_number":95,"observed_reward":0,"unobserved_reward":0},{"RT":2137,"time": "2018-08-15 06:07:33pm", "schedule_type": "STATIC", "schedule_name": "random_13", "is_biased_choice":false,"side_choice": "RIGHT", "trial_number":96,"observed_reward":1,"unobserved_reward":0},{"RT":2248,"time": "2018-08-15 06:07:35pm", "schedule_type": "STATIC", "schedule_name": "random_13", "is_biased_choice":false,"side_choice": "RIGHT", "trial_number":97,"observed_reward":0,"unobserved_reward":0},{"RT":2558,"time": "2018-08-15 06:07:37pm", "schedule_type": "STATIC", "schedule_name": "random_13", "is_biased_choice":true,"side_choice": "LEFT", "trial_number":98,"observed_reward":0,"unobserved_reward":0},{"RT":2016,"time": "2018-08-15 06:07:39pm", "schedule_type": "STATIC", "schedule_name": "random_13", "is_biased_choice":true,"side_choice": "LEFT", "trial_number":99,"observed_reward":0,"unobserved_reward":0},