[{"RT":6132,"time": "2018-08-15 01:56:16pm", "schedule_type": "STATIC", "schedule_name": "random_13", "is_biased_choice":true,"side_choice": "RIGHT", "trial_number":0,"observed_reward":0,"unobserved_reward":1},{"RT":3377,"time": "2018-08-15 01:56:20pm", "schedule_type": "STATIC", "schedule_name": "random_13", "is_biased_choice":false,"side_choice": "LEFT", "trial_number":1,"observed_reward":1,"unobserved_reward":0},{"RT":2537,"time": "2018-08-15 01:56:22pm", "schedule_type": "STATIC", "schedule_name": "random_13", "is_biased_choice":false,"side_choice": "LEFT", "trial_number":2,"observed_reward":1,"unobserved_reward":1},{"RT":2517,"time": "2018-08-15 01:56:25pm", "schedule_type": "STATIC", "schedule_name": "random_13", "is_biased_choice":false,"side_choice": "LEFT", "trial_number":3,"observed_reward":0,"unobserved_reward":0},{"RT":2813,"time": "2018-08-15 01:56:28pm", "schedule_type": "STATIC", "schedule_name": "random_13", "is_biased_choice":false,"side_choice": "LEFT", "trial_number":4,"observed_reward":1,"unobserved_reward":0},{"RT":2605,"time": "2018-08-15 01:56:30pm", "schedule_type": "STATIC", "schedule_name": "random_13", "is_biased_choice":false,"side_choice": "LEFT", "trial_number":5,"observed_reward":1,"unobserved_reward":0},{"RT":2583,"time": "2018-08-15 01:56:33pm", "schedule_type": "STATIC", "schedule_name": "random_13", "is_biased_choice":false,"side_choice": "LEFT", "trial_number":6,"observed_reward":1,"unobserved_reward":0},{"RT":2547,"time": "2018-08-15 01:56:35pm", "schedule_type": "STATIC", "schedule_name": "random_13", "is_biased_choice":false,"side_choice": "LEFT", "trial_number":7,"observed_reward":1,"unobserved_reward":1},{"RT":2568,"time": "2018-08-15 01:56:38pm", "schedule_type": "STATIC", "schedule_name": "random_13", "is_biased_choice":false,"side_choice": "LEFT", "trial_number":8,"observed_reward":1,"unobserved_reward":0},{"RT":2617,"time": "2018-08-15 01:56:40pm", "schedule_type": "STATIC", "schedule_name": "random_13", "is_biased_choice":false,"side_choice": "LEFT", "trial_number":9,"observed_reward":0,"unobserved_reward":0},{"RT":2699,"time": "2018-08-15 01:56:43pm", "schedule_type": "STATIC", "schedule_name": "random_13", "is_biased_choice":true,"side_choice": "RIGHT", "trial_number":10,"observed_reward":0,"unobserved_reward":0},{"RT":2415,"time": "2018-08-15 01:56:46pm", "schedule_type": "STATIC", "schedule_name": "random_13", "is_biased_choice":true,"side_choice": "RIGHT", "trial_number":11,"observed_reward":0,"unobserved_reward":1},{"RT":2583,"time": "2018-08-15 01:56:48pm", "schedule_type": "STATIC", "schedule_name": "random_13", "is_biased_choice":false,"side_choice": "LEFT", "trial_number":12,"observed_reward":0,"unobserved_reward":1},{"RT":2384,"time": "2018-08-15 01:56:50pm", "schedule_type": "STATIC", "schedule_name": "random_13", "is_biased_choice":false,"side_choice": "LEFT", "trial_number":13,"observed_reward":0,"unobserved_reward":0},{"RT":2468,"time": "2018-08-15 01:56:53pm", "schedule_type": "STATIC", "schedule_name": "random_13", "is_biased_choice":false,"side_choice": "LEFT", "trial_number":14,"observed_reward":0,"unobserved_reward":0},{"RT":2416,"time": "2018-08-15 01:56:55pm", "schedule_type": "STATIC", "schedule_name": "random_13", "is_biased_choice":true,"side_choice": "RIGHT", "trial_number":15,"observed_reward":0,"unobserved_reward":0},{"RT":2416,"time": "2018-08-15 01:56:58pm", "schedule_type": "STATIC", "schedule_name": "random_13", "is_biased_choice":true,"side_choice": "RIGHT", "trial_number":16,"observed_reward":1,"unobserved_reward":0},{"RT":2584,"time": "2018-08-15 01:57:00pm", "schedule_type": "STATIC", "schedule_name": "random_13", "is_biased_choice":true,"side_choice": "RIGHT", "trial_number":17,"observed_reward":1,"unobserved_reward":0},{"RT":2417,"time": "2018-08-15 01:57:03pm", "schedule_type": "STATIC", "schedule_name": "random_13", "is_biased_choice":true,"side_choice": "RIGHT", "trial_number":18,"observed_reward":0,"unobserved_reward":0},{"RT":2516,"time": "2018-08-15 01:57:05pm", "schedule_type": "STATIC", "schedule_name": "random_13", "is_biased_choice":true,"side_choice": "RIGHT", "trial_number":19,"observed_reward":0,"unobserved_reward":1},{"RT":2383,"time": "2018-08-15 01:57:08pm", "schedule_type": "STATIC", "schedule_name": "random_13", "is_biased_choice":true,"side_choice": "RIGHT", "trial_number":20,"observed_reward":0,"unobserved_reward":0},{"RT":2518,"time": "2018-08-15 01:57:10pm", "schedule_type": "STATIC", "schedule_name": "random_13", "is_biased_choice":true,"side_choice": "RIGHT", "trial_number":21,"observed_reward":0,"unobserved_reward":0},{"RT":2349,"time": "2018-08-15 01:57:13pm", "schedule_type": "STATIC", "schedule_name": "random_13", "is_biased_choice":true,"side_choice": "RIGHT", "trial_number":22,"observed_reward":0,"unobserved_reward":0},{"RT":2567,"time": "2018-08-15 01:57:15pm", "schedule_type": "STATIC", "schedule_name": "random_13", "is_biased_choice":true,"side_choice": "RIGHT", "trial_number":23,"observed_reward":1,"unobserved_reward":0},{"RT":2417,"time": "2018-08-15 01:57:18pm", "schedule_type": "STATIC", "schedule_name": "random_13", "is_biased_choice":true,"side_choice": "RIGHT", "trial_number":24,"observed_reward":0,"unobserved_reward":0},{"RT":2616,"time": "2018-08-15 01:57:20pm", "schedule_type": "STATIC", "schedule_name": "random_13", "is_biased_choice":true,"side_choice": "RIGHT", "trial_number":25,"observed_reward":0,"unobserved_reward":0},{"RT":2333,"time": "2018-08-15 01:57:23pm", "schedule_type": "STATIC", "schedule_name": "random_13", "is_biased_choice":true,"side_choice": "RIGHT", "trial_number":26,"observed_reward":1,"unobserved_reward":0},{"RT":2572,"time": "2018-08-15 01:57:25pm", "schedule_type": "STATIC", "schedule_name": "random_13", "is_biased_choice":true,"side_choice": "RIGHT", "trial_number":27,"observed_reward":0,"unobserved_reward":0},{"RT":2477,"time": "2018-08-15 01:57:28pm", "schedule_type": "STATIC", "schedule_name": "random_13", "is_biased_choice":false,"side_choice": "LEFT", "trial_number":28,"observed_reward":0,"unobserved_reward":0},{"RT":2524,"time": "2018-08-15 01:57:30pm", "schedule_type": "STATIC", "schedule_name": "random_13", "is_biased_choice":false,"side_choice": "LEFT", "trial_number":29,"observed_reward":1,"unobserved_reward":0},{"RT":2443,"time": "2018-08-15 01:57:33pm", "schedule_type": "STATIC", "schedule_name": "random_13", "is_biased_choice":false,"side_choice": "LEFT", "trial_number":30,"observed_reward":1,"unobserved_reward":1},{"RT":2433,"time": "2018-08-15 01:57:35pm", "schedule_type": "STATIC", "schedule_name": "random_13", "is_biased_choice":false,"side_choice": "LEFT", "trial_number":31,"observed_reward":0,"unobserved_reward":0},{"RT":2568,"time": "2018-08-15 01:57:38pm", "schedule_type": "STATIC", "schedule_name": "random_13", "is_biased_choice":false,"side_choice": "LEFT", "trial_number":32,"observed_reward":0,"unobserved_reward":0},{"RT":2516,"time": "2018-08-15 01:57:40pm", "schedule_type": "STATIC", "schedule_name": "random_13", "is_biased_choice":false,"side_choice": "LEFT", "trial_number":33,"observed_reward":1,"unobserved_reward":1},{"RT":2482,"time": "2018-08-15 01:57:42pm", "schedule_type": "STATIC", "schedule_name": "random_13", "is_biased_choice":false,"side_choice": "LEFT", "trial_number":34,"observed_reward":1,"unobserved_reward":1},{"RT":2367,"time": "2018-08-15 01:57:45pm", "schedule_type": "STATIC", "schedule_name": "random_13", "is_biased_choice":false,"side_choice": "LEFT", "trial_number":35,"observed_reward":0,"unobserved_reward":0},{"RT":2583,"time": "2018-08-15 01:57:48pm", "schedule_type": "STATIC", "schedule_name": "random_13", "is_biased_choice":false,"side_choice": "LEFT", "trial_number":36,"observed_reward":0,"unobserved_reward":0},{"RT":3134,"time": "2018-08-15 01:57:51pm", "schedule_type": "STATIC", "schedule_name": "random_13", "is_biased_choice":true,"side_choice": "RIGHT", "trial_number":37,"observed_reward":1,"unobserved_reward":0},{"RT":2516,"time": "2018-08-15 01:57:53pm", "schedule_type": "STATIC", "schedule_name": "random_13", "is_biased_choice":false,"side_choice": "LEFT", "trial_number":38,"observed_reward":1,"unobserved_reward":1},{"RT":2567,"time": "2018-08-15 01:57:56pm", "schedule_type": "STATIC", "schedule_name": "random_13", "is_biased_choice":false,"side_choice": "LEFT", "trial_number":39,"observed_reward":0,"unobserved_reward":1},{"RT":2531,"time": "2018-08-15 01:57:58pm", "schedule_type": "STATIC", "schedule_name": "random_13", "is_biased_choice":false,"side_choice": "LEFT", "trial_number":40,"observed_reward":1,"unobserved_reward":0},