trial_number, time, schedule_type, schedule_name, is_biased_choice, side_choice, RT, observed_reward, unobserved_reward, biased_reward, unbiased_reward
0,2018-08-15 03:44:22pm, STATIC, random_13, true, LEFT, 6974, 0, 1, 0, 1
1,2018-08-15 03:44:30pm, STATIC, random_13, false, RIGHT, 8624, 1, 0, 0, 1
2,2018-08-15 03:44:35pm, STATIC, random_13, false, RIGHT, 4622, 1, 1, 1, 1
3,2018-08-15 03:44:39pm, STATIC, random_13, false, RIGHT, 4409, 0, 0, 0, 0
4,2018-08-15 03:44:42pm, STATIC, random_13, true, LEFT, 3024, 0, 1, 0, 1
5,2018-08-15 03:44:46pm, STATIC, random_13, false, RIGHT, 4015, 1, 0, 0, 1
6,2018-08-15 03:44:51pm, STATIC, random_13, true, LEFT, 4699, 0, 1, 0, 1
7,2018-08-15 03:44:55pm, STATIC, random_13, false, RIGHT, 4246, 1, 1, 1, 1
8,2018-08-15 03:44:59pm, STATIC, random_13, false, RIGHT, 3872, 1, 0, 0, 1
9,2018-08-15 03:45:04pm, STATIC, random_13, false, RIGHT, 5104, 0, 0, 0, 0
10,2018-08-15 03:45:09pm, STATIC, random_13, true, LEFT, 4283, 0, 0, 0, 0
11,2018-08-15 03:45:12pm, STATIC, random_13, false, RIGHT, 3876, 1, 0, 0, 1
12,2018-08-15 03:45:16pm, STATIC, random_13, false, RIGHT, 3834, 0, 1, 1, 0
13,2018-08-15 03:45:21pm, STATIC, random_13, true, LEFT, 4575, 0, 0, 0, 0
14,2018-08-15 03:45:25pm, STATIC, random_13, false, RIGHT, 4240, 0, 0, 0, 0
15,2018-08-15 03:45:30pm, STATIC, random_13, false, RIGHT, 5144, 0, 0, 0, 0
16,2018-08-15 03:45:35pm, STATIC, random_13, true, LEFT, 4375, 1, 0, 1, 0
17,2018-08-15 03:45:38pm, STATIC, random_13, true, LEFT, 3872, 1, 0, 1, 0
18,2018-08-15 03:45:42pm, STATIC, random_13, true, LEFT, 3601, 0, 0, 0, 0
19,2018-08-15 03:45:46pm, STATIC, random_13, false, RIGHT, 3480, 1, 0, 0, 1
20,2018-08-15 03:45:49pm, STATIC, random_13, false, RIGHT, 3463, 0, 0, 0, 0
21,2018-08-15 03:45:52pm, STATIC, random_13, true, LEFT, 3250, 0, 0, 0, 0
22,2018-08-15 03:45:56pm, STATIC, random_13, false, RIGHT, 3281, 0, 0, 0, 0
23,2018-08-15 03:45:59pm, STATIC, random_13, false, RIGHT, 3470, 0, 1, 1, 0
24,2018-08-15 03:46:02pm, STATIC, random_13, false, RIGHT, 3248, 0, 0, 0, 0
25,2018-08-15 03:46:06pm, STATIC, random_13, true, LEFT, 3497, 0, 0, 0, 0
26,2018-08-15 03:46:09pm, STATIC, random_13, false, RIGHT, 3687, 0, 1, 1, 0
27,2018-08-15 03:46:13pm, STATIC, random_13, true, LEFT, 3479, 0, 0, 0, 0
28,2018-08-15 03:46:16pm, STATIC, random_13, false, RIGHT, 3320, 0, 0, 0, 0
29,2018-08-15 03:46:20pm, STATIC, random_13, false, RIGHT, 3321, 1, 0, 0, 1
30,2018-08-15 03:46:23pm, STATIC, random_13, false, RIGHT, 3592, 1, 1, 1, 1
31,2018-08-15 03:46:26pm, STATIC, random_13, false, RIGHT, 3279, 0, 0, 0, 0
32,2018-08-15 03:46:30pm, STATIC, random_13, false, RIGHT, 3233, 0, 0, 0, 0
33,2018-08-15 03:46:33pm, STATIC, random_13, true, LEFT, 3409, 1, 1, 1, 1
34,2018-08-15 03:46:37pm, STATIC, random_13, true, LEFT, 3613, 1, 1, 1, 1
35,2018-08-15 03:46:40pm, STATIC, random_13, true, LEFT, 3681, 0, 0, 0, 0
36,2018-08-15 03:46:44pm, STATIC, random_13, false, RIGHT, 3184, 0, 0, 0, 0
37,2018-08-15 03:46:47pm, STATIC, random_13, true, LEFT, 3545, 1, 0, 1, 0
38,2018-08-15 03:46:50pm, STATIC, random_13, false, RIGHT, 3131, 1, 1, 1, 1
39,2018-08-15 03:46:54pm, STATIC, random_13, true, LEFT, 3702, 1, 0, 1, 0
40,2018-08-15 03:46:57pm, STATIC, random_13, false, RIGHT, 3183, 1, 0, 0, 1
41,2018-08-15 03:47:01pm, STATIC, random_13, false, RIGHT, 3496, 0, 0, 0, 0
42,2018-08-15 03:47:04pm, STATIC, random_13, true, LEFT, 3441, 0, 0, 0, 0
43,2018-08-15 03:47:07pm, STATIC, random_13, false, RIGHT, 3414, 1, 1, 1, 1
44,2018-08-15 03:47:11pm, STATIC, random_13, false, RIGHT, 3904, 0, 1, 1, 0
45,2018-08-15 03:47:15pm, STATIC, random_13, true, LEFT, 3626, 0, 0, 0, 0
46,2018-08-15 03:47:18pm, STATIC, random_13, false, RIGHT, 3302, 0, 0, 0, 0
47,2018-08-15 03:47:22pm, STATIC, random_13, true, LEFT, 3368, 0, 0, 0, 0
48,2018-08-15 03:47:25pm, STATIC, random_13, false, RIGHT, 3420, 0, 1, 1, 0
49,2018-08-15 03:47:29pm, STATIC, random_13, true, LEFT, 3569, 0, 0, 0, 0
50,2018-08-15 03:47:32pm, STATIC, random_13, false, RIGHT, 3795, 0, 0, 0, 0
51,2018-08-15 03:47:36pm, STATIC, random_13, false, RIGHT, 3169, 0, 0, 0, 0
52,2018-08-15 03:47:39pm, STATIC, random_13, true, LEFT, 3474, 0, 1, 0, 1
53,2018-08-15 03:47:43pm, STATIC, random_13, true, LEFT, 3417, 0, 0, 0, 0
54,2018-08-15 03:47:46pm, STATIC, random_13, false, RIGHT, 3358, 0, 0, 0, 0
55,2018-08-15 03:47:49pm, STATIC, random_13, true, LEFT, 3216, 0, 0, 0, 0
56,2018-08-15 03:47:52pm, STATIC, random_13, false, RIGHT, 3247, 0, 0, 0, 0
57,2018-08-15 03:47:55pm, STATIC, random_13, true, LEFT, 2864, 0, 0, 0, 0
58,2018-08-15 03:47:59pm, STATIC, random_13, false, RIGHT, 3328, 0, 0, 0, 0
59,2018-08-15 03:48:02pm, STATIC, random_13, true, LEFT, 3216, 0, 1, 0, 1
60,2018-08-15 03:48:05pm, STATIC, random_13, true, LEFT, 3168, 0, 0, 0, 0
61,2018-08-15 03:48:08pm, STATIC, random_13, false, RIGHT, 3234, 0, 0, 0, 0
62,2018-08-15 03:48:11pm, STATIC, random_13, true, LEFT, 3071, 1, 0, 1, 0
63,2018-08-15 03:48:14pm, STATIC, random_13, true, LEFT, 3190, 0, 0, 0, 0
64,2018-08-15 03:48:18pm, STATIC, random_13, false, RIGHT, 3321, 0, 0, 0, 0
65,2018-08-15 03:48:21pm, STATIC, random_13, false, RIGHT, 2954, 0, 0, 0, 0
66,2018-08-15 03:48:24pm, STATIC, random_13, true, LEFT, 3103, 0, 0, 0, 0
67,2018-08-15 03:48:27pm, STATIC, random_13, false, RIGHT, 3289, 0, 0, 0, 0
68,2018-08-15 03:48:32pm, STATIC, random_13, false, RIGHT, 5056, 0, 0, 0, 0
69,2018-08-15 03:48:35pm, STATIC, random_13, true, LEFT, 3240, 0, 0, 0, 0
70,2018-08-15 03:48:39pm, STATIC, random_13, false, RIGHT, 3880, 0, 1, 1, 0
71,2018-08-15 03:48:42pm, STATIC, random_13, true, LEFT, 3142, 1, 0, 1, 0
72,2018-08-15 03:48:46pm, STATIC, random_13, false, RIGHT, 3384, 1, 1, 1, 1
73,2018-08-15 03:48:50pm, STATIC, random_13, true, LEFT, 3880, 0, 0, 0, 0
74,2018-08-15 03:48:53pm, STATIC, random_13, true, LEFT, 3263, 0, 0, 0, 0
75,2018-08-15 03:48:56pm, STATIC, random_13, false, RIGHT, 3242, 0, 1, 1, 0
76,2018-08-15 03:49:01pm, STATIC, random_13, true, LEFT, 4999, 0, 0, 0, 0
77,2018-08-15 03:49:04pm, STATIC, random_13, false, RIGHT, 3154, 0, 0, 0, 0
78,2018-08-15 03:49:08pm, STATIC, random_13, false, RIGHT, 3687, 0, 0, 0, 0
79,2018-08-15 03:49:12pm, STATIC, random_13, true, LEFT, 3841, 0, 0, 0, 0
80,2018-08-15 03:49:15pm, STATIC, random_13, false, RIGHT, 3534, 0, 0, 0, 0
81,2018-08-15 03:49:18pm, STATIC, random_13, true, LEFT, 2817, 1, 1, 1, 1
82,2018-08-15 03:49:22pm, STATIC, random_13, true, LEFT, 3488, 1, 0, 1, 0
83,2018-08-15 03:49:25pm, STATIC, random_13, true, LEFT, 3120, 0, 0, 0, 0
84,2018-08-15 03:49:28pm, STATIC, random_13, false, RIGHT, 3335, 1, 0, 0, 1
85,2018-08-15 03:49:31pm, STATIC, random_13, false, RIGHT, 3306, 0, 0, 0, 0
86,2018-08-15 03:49:35pm, STATIC, random_13, true, LEFT, 3096, 0, 0, 0, 0
87,2018-08-15 03:49:38pm, STATIC, random_13, true, LEFT, 3203, 0, 1, 0, 1
88,2018-08-15 03:49:41pm, STATIC, random_13, true, LEFT, 3020, 0, 0, 0, 0
89,2018-08-15 03:49:44pm, STATIC, random_13, false, RIGHT, 3377, 1, 0, 0, 1
90,2018-08-15 03:49:47pm, STATIC, random_13, false, RIGHT, 3353, 0, 1, 1, 0
91,2018-08-15 03:49:51pm, STATIC, random_13, true, LEFT, 3238, 0, 0, 0, 0
92,2018-08-15 03:49:54pm, STATIC, random_13, false, RIGHT, 3328, 0, 0, 0, 0
93,2018-08-15 03:49:57pm, STATIC, random_13, true, LEFT, 3191, 1, 0, 1, 0
94,2018-08-15 03:50:01pm, STATIC, random_13, false, RIGHT, 3762, 0, 0, 0, 0
95,2018-08-15 03:50:04pm, STATIC, random_13, true, LEFT, 3359, 0, 0, 0, 0
96,2018-08-15 03:50:07pm, STATIC, random_13, false, RIGHT, 3050, 1, 0, 0, 1
97,2018-08-15 03:50:13pm, STATIC, random_13, true, LEFT, 5359, 0, 0, 0, 0
98,2018-08-15 03:50:16pm, STATIC, random_13, false, RIGHT, 3112, 0, 0, 0, 0
