[{"RT":1616,"time": "2018-08-15 06:06:32pm", "schedule_type": "STATIC", "schedule_name": "random_6", "is_biased_choice":false,"side_choice": "LEFT", "trial_number":0,"observed_reward":0,"unobserved_reward":0},{"RT":3107,"time": "2018-08-15 06:06:36pm", "schedule_type": "STATIC", "schedule_name": "random_6", "is_biased_choice":true,"side_choice": "RIGHT", "trial_number":1,"observed_reward":1,"unobserved_reward":0},{"RT":5209,"time": "2018-08-15 06:06:41pm", "schedule_type": "STATIC", "schedule_name": "random_6", "is_biased_choice":true,"side_choice": "RIGHT", "trial_number":2,"observed_reward":0,"unobserved_reward":1},{"RT":2630,"time": "2018-08-15 06:06:43pm", "schedule_type": "STATIC", "schedule_name": "random_6", "is_biased_choice":false,"side_choice": "LEFT", "trial_number":3,"observed_reward":0,"unobserved_reward":0},{"RT":2321,"time": "2018-08-15 06:06:46pm", "schedule_type": "STATIC", "schedule_name": "random_6", "is_biased_choice":true,"side_choice": "RIGHT", "trial_number":4,"observed_reward":0,"unobserved_reward":0},{"RT":3024,"time": "2018-08-15 06:06:49pm", "schedule_type": "STATIC", "schedule_name": "random_6", "is_biased_choice":true,"side_choice": "RIGHT", "trial_number":5,"observed_reward":1,"unobserved_reward":0},{"RT":2928,"time": "2018-08-15 06:06:52pm", "schedule_type": "STATIC", "schedule_name": "random_6", "is_biased_choice":false,"side_choice": "LEFT", "trial_number":6,"observed_reward":0,"unobserved_reward":1},{"RT":3112,"time": "2018-08-15 06:06:55pm", "schedule_type": "STATIC", "schedule_name": "random_6", "is_biased_choice":false,"side_choice": "LEFT", "trial_number":7,"observed_reward":1,"unobserved_reward":0},{"RT":2768,"time": "2018-08-15 06:06:58pm", "schedule_type": "STATIC", "schedule_name": "random_6", "is_biased_choice":false,"side_choice": "LEFT", "trial_number":8,"observed_reward":0,"unobserved_reward":0},{"RT":2967,"time": "2018-08-15 06:07:01pm", "schedule_type": "STATIC", "schedule_name": "random_6", "is_biased_choice":false,"side_choice": "LEFT", "trial_number":9,"observed_reward":0,"unobserved_reward":1},{"RT":3381,"time": "2018-08-15 06:07:04pm", "schedule_type": "STATIC", "schedule_name": "random_6", "is_biased_choice":true,"side_choice": "RIGHT", "trial_number":10,"observed_reward":1,"unobserved_reward":1},{"RT":3324,"time": "2018-08-15 06:07:08pm", "schedule_type": "STATIC", "schedule_name": "random_6", "is_biased_choice":true,"side_choice": "RIGHT", "trial_number":11,"observed_reward":0,"unobserved_reward":1},{"RT":2625,"time": "2018-08-15 06:07:10pm", "schedule_type": "STATIC", "schedule_name": "random_6", "is_biased_choice":true,"side_choice": "RIGHT", "trial_number":12,"observed_reward":0,"unobserved_reward":1},{"RT":3038,"time": "2018-08-15 06:07:13pm", "schedule_type": "STATIC", "schedule_name": "random_6", "is_biased_choice":true,"side_choice": "RIGHT", "trial_number":13,"observed_reward":0,"unobserved_reward":0},{"RT":3016,"time": "2018-08-15 06:07:16pm", "schedule_type": "STATIC", "schedule_name": "random_6", "is_biased_choice":true,"side_choice": "RIGHT", "trial_number":14,"observed_reward":0,"unobserved_reward":0},{"RT":2600,"time": "2018-08-15 06:07:19pm", "schedule_type": "STATIC", "schedule_name": "random_6", "is_biased_choice":true,"side_choice": "RIGHT", "trial_number":15,"observed_reward":0,"unobserved_reward":0},{"RT":4577,"time": "2018-08-15 06:07:23pm", "schedule_type": "STATIC", "schedule_name": "random_6", "is_biased_choice":true,"side_choice": "RIGHT", "trial_number":16,"observed_reward":0,"unobserved_reward":0},{"RT":37001,"time": "2018-08-15 06:08:00pm", "schedule_type": "STATIC", "schedule_name": "random_6", "is_biased_choice":true,"side_choice": "RIGHT", "trial_number":17,"observed_reward":0,"unobserved_reward":0},{"RT":2632,"time": "2018-08-15 06:08:03pm", "schedule_type": "STATIC", "schedule_name": "random_6", "is_biased_choice":false,"side_choice": "LEFT", "trial_number":18,"observed_reward":0,"unobserved_reward":0},{"RT":2983,"time": "2018-08-15 06:08:06pm", "schedule_type": "STATIC", "schedule_name": "random_6", "is_biased_choice":false,"side_choice": "LEFT", "trial_number":19,"observed_reward":0,"unobserved_reward":1},{"RT":2251,"time": "2018-08-15 06:08:08pm", "schedule_type": "STATIC", "schedule_name": "random_6", "is_biased_choice":false,"side_choice": "LEFT", "trial_number":20,"observed_reward":1,"unobserved_reward":1},{"RT":3437,"time": "2018-08-15 06:08:12pm", "schedule_type": "STATIC", "schedule_name": "random_6", "is_biased_choice":false,"side_choice": "LEFT", "trial_number":21,"observed_reward":0,"unobserved_reward":0},{"RT":2232,"time": "2018-08-15 06:08:14pm", "schedule_type": "STATIC", "schedule_name": "random_6", "is_biased_choice":true,"side_choice": "RIGHT", "trial_number":22,"observed_reward":0,"unobserved_reward":0},{"RT":5249,"time": "2018-08-15 06:08:19pm", "schedule_type": "STATIC", "schedule_name": "random_6", "is_biased_choice":true,"side_choice": "RIGHT", "trial_number":23,"observed_reward":0,"unobserved_reward":0},{"RT":5490,"time": "2018-08-15 06:08:24pm", "schedule_type": "STATIC", "schedule_name": "random_6", "is_biased_choice":true,"side_choice": "RIGHT", "trial_number":24,"observed_reward":1,"unobserved_reward":0},{"RT":3814,"time": "2018-08-15 06:08:28pm", "schedule_type": "STATIC", "schedule_name": "random_6", "is_biased_choice":true,"side_choice": "RIGHT", "trial_number":25,"observed_reward":0,"unobserved_reward":0},{"RT":2406,"time": "2018-08-15 06:08:31pm", "schedule_type": "STATIC", "schedule_name": "random_6", "is_biased_choice":false,"side_choice": "LEFT", "trial_number":26,"observed_reward":0,"unobserved_reward":0},{"RT":2146,"time": "2018-08-15 06:08:33pm", "schedule_type": "STATIC", "schedule_name": "random_6", "is_biased_choice":false,"side_choice": "LEFT", "trial_number":27,"observed_reward":1,"unobserved_reward":1},{"RT":2472,"time": "2018-08-15 06:08:35pm", "schedule_type": "STATIC", "schedule_name": "random_6", "is_biased_choice":false,"side_choice": "LEFT", "trial_number":28,"observed_reward":1,"unobserved_reward":1},{"RT":2273,"time": "2018-08-15 06:08:38pm", "schedule_type": "STATIC", "schedule_name": "random_6", "is_biased_choice":false,"side_choice": "LEFT", "trial_number":29,"observed_reward":0,"unobserved_reward":0},{"RT":2335,"time": "2018-08-15 06:08:40pm", "schedule_type": "STATIC", "schedule_name": "random_6", "is_biased_choice":false,"side_choice": "LEFT", "trial_number":30,"observed_reward":0,"unobserved_reward":0},{"RT":2815,"time": "2018-08-15 06:08:43pm", "schedule_type": "STATIC", "schedule_name": "random_6", "is_biased_choice":true,"side_choice": "RIGHT", "trial_number":31,"observed_reward":0,"unobserved_reward":0},{"RT":3648,"time": "2018-08-15 06:08:47pm", "schedule_type": "STATIC", "schedule_name": "random_6", "is_biased_choice":true,"side_choice": "RIGHT", "trial_number":32,"observed_reward":0,"unobserved_reward":0},{"RT":3464,"time": "2018-08-15 06:08:50pm", "schedule_type": "STATIC", "schedule_name": "random_6", "is_biased_choice":true,"side_choice": "RIGHT", "trial_number":33,"observed_reward":0,"unobserved_reward":0},{"RT":4448,"time": "2018-08-15 06:08:55pm", "schedule_type": "STATIC", "schedule_name": "random_6", "is_biased_choice":true,"side_choice": "RIGHT", "trial_number":34,"observed_reward":0,"unobserved_reward":1},{"RT":2440,"time": "2018-08-15 06:08:57pm", "schedule_type": "STATIC", "schedule_name": "random_6", "is_biased_choice":true,"side_choice": "RIGHT", "trial_number":35,"observed_reward":0,"unobserved_reward":1},{"RT":2112,"time": "2018-08-15 06:08:59pm", "schedule_type": "STATIC", "schedule_name": "random_6", "is_biased_choice":true,"side_choice": "RIGHT", "trial_number":36,"observed_reward":1,"unobserved_reward":0},{"RT":2681,"time": "2018-08-15 06:09:01pm", "schedule_type": "STATIC", "schedule_name": "random_6", "is_biased_choice":true,"side_choice": "RIGHT", "trial_number":37,"observed_reward":0,"unobserved_reward":0},{"RT":3370,"time": "2018-08-15 06:09:05pm", "schedule_type": "STATIC", "schedule_name": "random_6", "is_biased_choice":true,"side_choice": "RIGHT", "trial_number":38,"observed_reward":0,"unobserved_reward":0},{"RT":2454,"time": "2018-08-15 06:09:08pm", "schedule_type": "STATIC", "schedule_name": "random_6", "is_biased_choice":true,"side_choice": "RIGHT", "trial_number":39,"observed_reward":0,"unobserved_reward":0},{"RT":2360,"time": "2018-08-15 06:09:10pm", "schedule_type": "STATIC", "schedule_name": "random_6", "is_biased_choice":true,"side_choice": "RIGHT", "trial_number":40,"observed_reward":0,"unobserved_reward":0},{"RT":2400,"time": "2018-08-15 06:09:12pm", "schedule_type": "STATIC", "schedule_name": "random_6", "is_biased_choice":true,"side_choice": "RIGHT", "trial_number":41,"observed_reward":0,"unobserved_reward":0},{"RT":2224,"time": "2018-08-15 06:09:14pm", "schedule_type": "STATIC", "schedule_name": "random_6", "is_biased_choice":true,"side_choice": "RIGHT", "trial_number":42,"observed_reward":0,"unobserved_reward":1},{"RT":2320,"time": "2018-08-15 06:09:17pm", "schedule_type": "STATIC", "schedule_name": "random_6", "is_biased_choice":true,"side_choice": "RIGHT", "trial_number":43,"observed_reward":0,"unobserved_reward":0},{"RT":3184,"time": "2018-08-15 06:09:20pm", "schedule_type": "STATIC", "schedule_name": "random_6", "is_biased_choice":true,"side_choice": "RIGHT", "trial_number":44,"observed_reward":0,"unobserved_reward":0},{"RT":2304,"time": "2018-08-15 06:09:22pm", "schedule_type": "STATIC", "schedule_name": "random_6", "is_biased_choice":true,"side_choice": "RIGHT", "trial_number":45,"observed_reward":0,"unobserved_reward":0},{"RT":3626,"time": "2018-08-15 06:09:26pm", "schedule_type": "STATIC", "schedule_name": "random_6", "is_biased_choice":true,"side_choice": "RIGHT", "trial_number":46,"observed_reward":0,"unobserved_reward":1},{"RT":4798,"time": "2018-08-15 06:09:31pm", "schedule_type": "STATIC", "schedule_name": "random_6", "is_biased_choice":true,"side_choice": "RIGHT", "trial_number":47,"observed_reward":0,"unobserved_reward":0},{"RT":2623,"time": "2018-08-15 06:09:33pm", "schedule_type": "STATIC", "schedule_name": "random_6", "is_biased_choice":true,"side_choice": "RIGHT", "trial_number":48,"observed_reward":0,"unobserved_reward":0},{"RT":50385,"time": "2018-08-15 06:10:24pm", "schedule_type": "STATIC", "schedule_name": "random_6", "is_biased_choice":false,"side_choice": "LEFT", "trial_number":49,"observed_reward":0,"unobserved_reward":0},{"RT":3591,"time": "2018-08-15 06:10:27pm", "schedule_type": "STATIC", "schedule_name": "random_6", "is_biased_choice":false,"side_choice": "LEFT", "trial_number":50,"observed_reward":0,"unobserved_reward":1},{"RT":2408,"time": "2018-08-15 06:10:29pm", "schedule_type": "STATIC", "schedule_name": "random_6", "is_biased_choice":true,"side_choice": "RIGHT", "trial_number":51,"observed_reward":0,"unobserved_reward":1},{"RT":2424,"time": "2018-08-15 06:10:32pm", "schedule_type": "STATIC", "schedule_name": "random_6", "is_biased_choice":true,"side_choice": "RIGHT", "trial_number":52,"observed_reward":0,"unobserved_reward":0},{"RT":4856,"time": "2018-08-15 06:10:37pm", "schedule_type": "STATIC", "schedule_name": "random_6", "is_biased_choice":true,"side_choice": "RIGHT", "trial_number":53,"observed_reward":0,"unobserved_reward":1},{"RT":3032,"time": "2018-08-15 06:10:40pm", "schedule_type": "STATIC", "schedule_name": "random_6", "is_biased_choice":false,"side_choice": "LEFT", "trial_number":54,"observed_reward":0,"unobserved_reward":0},{"RT":3048,"time": "2018-08-15 06:10:43pm", "schedule_type": "STATIC", "schedule_name": "random_6", "is_biased_choice":false,"side_choice": "LEFT", "trial_number":55,"observed_reward":0,"unobserved_reward":0},{"RT":3336,"time": "2018-08-15 06:10:46pm", "schedule_type": "STATIC", "schedule_name": "random_6", "is_biased_choice":true,"side_choice": "RIGHT", "trial_number":56,"observed_reward":1,"unobserved_reward":0},{"RT":3336,"time": "2018-08-15 06:10:49pm", "schedule_type": "STATIC", "schedule_name": "random_6", "is_biased_choice":false,"side_choice": "LEFT", "trial_number":57,"observed_reward":0,"unobserved_reward":0},{"RT":3154,"time": "2018-08-15 06:10:53pm", "schedule_type": "STATIC", "schedule_name": "random_6", "is_biased_choice":true,"side_choice": "RIGHT", "trial_number":58,"observed_reward":0,"unobserved_reward":0},{"RT":2885,"time": "2018-08-15 06:10:56pm", "schedule_type": "STATIC", "schedule_name": "random_6", "is_biased_choice":true,"side_choice": "RIGHT", "trial_number":59,"observed_reward":0,"unobserved_reward":0},{"RT":2752,"time": "2018-08-15 06:10:59pm", "schedule_type": "STATIC", "schedule_name": "random_6", "is_biased_choice":true,"side_choice": "RIGHT", "trial_number":60,"observed_reward":1,"unobserved_reward":1},{"RT":5377,"time": "2018-08-15 06:11:04pm", "schedule_type": "STATIC", "schedule_name": "random_6", "is_biased_choice":true,"side_choice": "RIGHT", "trial_number":61,"observed_reward":0,"unobserved_reward":0},{"RT":2617,"time": "2018-08-15 06:11:07pm", "schedule_type": "STATIC", "schedule_name": "random_6", "is_biased_choice":false,"side_choice": "LEFT", "trial_number":62,"observed_reward":0,"unobserved_reward":1},{"RT":2606,"time": "2018-08-15 06:11:09pm", "schedule_type": "STATIC", "schedule_name": "random_6", "is_biased_choice":false,"side_choice": "LEFT", "trial_number":63,"observed_reward":0,"unobserved_reward":0},{"RT":2840,"time": "2018-08-15 06:11:12pm", "schedule_type": "STATIC", "schedule_name": "random_6", "is_biased_choice":false,"side_choice": "LEFT", "trial_number":64,"observed_reward":0,"unobserved_reward":0},{"RT":2329,"time": "2018-08-15 06:11:14pm", "schedule_type": "STATIC", "schedule_name": "random_6", "is_biased_choice":false,"side_choice": "LEFT", "trial_number":65,"observed_reward":0,"unobserved_reward":0},{"RT":2526,"time": "2018-08-15 06:11:17pm", "schedule_type": "STATIC", "schedule_name": "random_6", "is_biased_choice":true,"side_choice": "RIGHT", "trial_number":66,"observed_reward":0,"unobserved_reward":0},{"RT":2953,"time": "2018-08-15 06:11:20pm", "schedule_type": "STATIC", "schedule_name": "random_6", "is_biased_choice":true,"side_choice": "RIGHT", "trial_number":67,"observed_reward":0,"unobserved_reward":0},{"RT":2305,"time": "2018-08-15 06:11:22pm", "schedule_type": "STATIC", "schedule_name": "random_6", "is_biased_choice":false,"side_choice": "LEFT", "trial_number":68,"observed_reward":0,"unobserved_reward":0},{"RT":2753,"time": "2018-08-15 06:11:25pm", "schedule_type": "STATIC", "schedule_name": "random_6", "is_biased_choice":true,"side_choice": "RIGHT", "trial_number":69,"observed_reward":0,"unobserved_reward":0},{"RT":4432,"time": "2018-08-15 06:11:29pm", "schedule_type": "STATIC", "schedule_name": "random_6", "is_biased_choice":true,"side_choice": "RIGHT", "trial_number":70,"observed_reward":1,"unobserved_reward":0},{"RT":22064,"time": "2018-08-15 06:11:51pm", "schedule_type": "STATIC", "schedule_name": "random_6", "is_biased_choice":true,"side_choice": "RIGHT", "trial_number":71,"observed_reward":0,"unobserved_reward":0},{"RT":88440,"time": "2018-08-15 06:13:20pm", "schedule_type": "STATIC", "schedule_name": "random_6", "is_biased_choice":true,"side_choice": "RIGHT", "trial_number":72,"observed_reward":0,"unobserved_reward":1},{"RT":273159,"time": "2018-08-15 06:17:53pm", "schedule_type": "STATIC", "schedule_name": "random_6", "is_biased_choice":true,"side_choice": "RIGHT", "trial_number":73,"observed_reward":1,"unobserved_reward":0},{"RT":2632,"time": "2018-08-15 06:17:55pm", "schedule_type": "STATIC", "schedule_name": "random_6", "is_biased_choice":true,"side_choice": "RIGHT", "trial_number":74,"observed_reward":0,"unobserved_reward":0},{"RT":2841,"time": "2018-08-15 06:17:58pm", "schedule_type": "STATIC", "schedule_name": "random_6", "is_biased_choice":true,"side_choice": "RIGHT", "trial_number":75,"observed_reward":0,"unobserved_reward":0},{"RT":3759,"time": "2018-08-15 06:18:02pm", "schedule_type": "STATIC", "schedule_name": "random_6", "is_biased_choice":false,"side_choice": "LEFT", "trial_number":76,"observed_reward":1,"unobserved_reward":1},{"RT":4752,"time": "2018-08-15 06:18:07pm", "schedule_type": "STATIC", "schedule_name": "random_6", "is_biased_choice":true,"side_choice": "RIGHT", "trial_number":77,"observed_reward":0,"unobserved_reward":0},{"RT":2209,"time": "2018-08-15 06:18:09pm", "schedule_type": "STATIC", "schedule_name": "random_6", "is_biased_choice":true,"side_choice": "RIGHT", "trial_number":78,"observed_reward":0,"unobserved_reward":0},{"RT":2584,"time": "2018-08-15 06:18:11pm", "schedule_type": "STATIC", "schedule_name": "random_6", "is_biased_choice":true,"side_choice": "RIGHT", "trial_number":79,"observed_reward":0,"unobserved_reward":0},{"RT":4505,"time": "2018-08-15 06:18:16pm", "schedule_type": "STATIC", "schedule_name": "random_6", "is_biased_choice":true,"side_choice": "RIGHT", "trial_number":80,"observed_reward":1,"unobserved_reward":1},{"RT":8037,"time": "2018-08-15 06:18:24pm", "schedule_type": "STATIC", "schedule_name": "random_6", "is_biased_choice":true,"side_choice": "RIGHT", "trial_number":81,"observed_reward":0,"unobserved_reward":0},{"RT":9760,"time": "2018-08-15 06:18:34pm", "schedule_type": "STATIC", "schedule_name": "random_6", "is_biased_choice":true,"side_choice": "RIGHT", "trial_number":82,"observed_reward":0,"unobserved_reward":0},{"RT":4177,"time": "2018-08-15 06:18:38pm", "schedule_type": "STATIC", "schedule_name": "random_6", "is_biased_choice":true,"side_choice": "RIGHT", "trial_number":83,"observed_reward":0,"unobserved_reward":1},{"RT":6937,"time": "2018-08-15 06:18:45pm", "schedule_type": "STATIC", "schedule_name": "random_6", "is_biased_choice":true,"side_choice": "RIGHT", "trial_number":84,"observed_reward":0,"unobserved_reward":1},{"RT":7232,"time": "2018-08-15 06:18:52pm", "schedule_type": "STATIC", "schedule_name": "random_6", "is_biased_choice":true,"side_choice": "RIGHT", "trial_number":85,"observed_reward":0,"unobserved_reward":0},{"RT":28657,"time": "2018-08-15 06:19:21pm", "schedule_type": "STATIC", "schedule_name": "random_6", "is_biased_choice":true,"side_choice": "RIGHT", "trial_number":86,"observed_reward":0,"unobserved_reward":0},{"RT":2574,"time": "2018-08-15 06:19:23pm", "schedule_type": "STATIC", "schedule_name": "random_6", "is_biased_choice":false,"side_choice": "LEFT", "trial_number":87,"observed_reward":0,"unobserved_reward":0},{"RT":3167,"time": "2018-08-15 06:19:27pm", "schedule_type": "STATIC", "schedule_name": "random_6", "is_biased_choice":true,"side_choice": "RIGHT", "trial_number":88,"observed_reward":0,"unobserved_reward":0},{"RT":2562,"time": "2018-08-15 06:19:29pm", "schedule_type": "STATIC", "schedule_name": "random_6", "is_biased_choice":true,"side_choice": "RIGHT", "trial_number":89,"observed_reward":0,"unobserved_reward":1},{"RT":2262,"time": "2018-08-15 06:19:31pm", "schedule_type": "STATIC", "schedule_name": "random_6", "is_biased_choice":true,"side_choice": "RIGHT", "trial_number":90,"observed_reward":0,"unobserved_reward":0},{"RT":2235,"time": "2018-08-15 06:19:34pm", "schedule_type": "STATIC", "schedule_name": "random_6", "is_biased_choice":true,"side_choice": "RIGHT", "trial_number":91,"observed_reward":0,"unobserved_reward":1},{"RT":2237,"time": "2018-08-15 06:19:36pm", "schedule_type": "STATIC", "schedule_name": "random_6", "is_biased_choice":true,"side_choice": "RIGHT", "trial_number":92,"observed_reward":1,"unobserved_reward":0},{"RT":2137,"time": "2018-08-15 06:19:38pm", "schedule_type": "STATIC", "schedule_name": "random_6", "is_biased_choice":true,"side_choice": "RIGHT", "trial_number":93,"observed_reward":1,"unobserved_reward":0},{"RT":4952,"time": "2018-08-15 06:19:43pm", "schedule_type": "STATIC", "schedule_name": "random_6", "is_biased_choice":true,"side_choice": "RIGHT", "trial_number":94,"observed_reward":0,"unobserved_reward":0},{"RT":2808,"time": "2018-08-15 06:19:46pm", "schedule_type": "STATIC", "schedule_name": "random_6", "is_biased_choice":true,"side_choice": "RIGHT", "trial_number":95,"observed_reward":1,"unobserved_reward":0},{"RT":2881,"time": "2018-08-15 06:19:49pm", "schedule_type": "STATIC", "schedule_name": "random_6", "is_biased_choice":true,"side_choice": "RIGHT", "trial_number":96,"observed_reward":0,"unobserved_reward":1},{"RT":3072,"time": "2018-08-15 06:19:52pm", "schedule_type": "STATIC", "schedule_name": "random_6", "is_biased_choice":true,"side_choice": "RIGHT", "trial_number":97,"observed_reward":1,"unobserved_reward":1},{"RT":8367,"time": "2018-08-15 06:20:00pm", "schedule_type": "STATIC", "schedule_name": "random_6", "is_biased_choice":true,"side_choice": "RIGHT", "trial_number":98,"observed_reward":1,"unobserved_reward":1},{"RT":3104,"time": "2018-08-15 06:20:03pm", "schedule_type": "STATIC", "schedule_name": "random_6", "is_biased_choice":true,"side_choice": "RIGHT", "trial_number":99,"observed_reward":1,"unobserved_reward":0},