[{"RT":4392,"time": "2018-08-15 02:00:11pm", "schedule_type": "STATIC", "schedule_name": "random_6", "is_biased_choice":false,"side_choice": "RIGHT", "trial_number":0,"observed_reward":0,"unobserved_reward":0},{"RT":9827,"time": "2018-08-15 02:00:21pm", "schedule_type": "STATIC", "schedule_name": "random_6", "is_biased_choice":false,"side_choice": "RIGHT", "trial_number":1,"observed_reward":0,"unobserved_reward":1},{"RT":45049,"time": "2018-08-15 02:01:06pm", "schedule_type": "STATIC", "schedule_name": "random_6", "is_biased_choice":false,"side_choice": "RIGHT", "trial_number":2,"observed_reward":1,"unobserved_reward":0},{"RT":14061,"time": "2018-08-15 02:01:20pm", "schedule_type": "STATIC", "schedule_name": "random_6", "is_biased_choice":false,"side_choice": "RIGHT", "trial_number":3,"observed_reward":0,"unobserved_reward":0},{"RT":2820,"time": "2018-08-15 02:01:23pm", "schedule_type": "STATIC", "schedule_name": "random_6", "is_biased_choice":false,"side_choice": "RIGHT", "trial_number":4,"observed_reward":0,"unobserved_reward":0},{"RT":12320,"time": "2018-08-15 02:01:35pm", "schedule_type": "STATIC", "schedule_name": "random_6", "is_biased_choice":false,"side_choice": "RIGHT", "trial_number":5,"observed_reward":0,"unobserved_reward":1},{"RT":2614,"time": "2018-08-15 02:01:38pm", "schedule_type": "STATIC", "schedule_name": "random_6", "is_biased_choice":false,"side_choice": "RIGHT", "trial_number":6,"observed_reward":0,"unobserved_reward":1},{"RT":3032,"time": "2018-08-15 02:01:41pm", "schedule_type": "STATIC", "schedule_name": "random_6", "is_biased_choice":false,"side_choice": "RIGHT", "trial_number":7,"observed_reward":1,"unobserved_reward":0},{"RT":2870,"time": "2018-08-15 02:01:44pm", "schedule_type": "STATIC", "schedule_name": "random_6", "is_biased_choice":true,"side_choice": "LEFT", "trial_number":8,"observed_reward":0,"unobserved_reward":0},{"RT":3354,"time": "2018-08-15 02:01:47pm", "schedule_type": "STATIC", "schedule_name": "random_6", "is_biased_choice":true,"side_choice": "LEFT", "trial_number":9,"observed_reward":1,"unobserved_reward":0},{"RT":6188,"time": "2018-08-15 02:01:53pm", "schedule_type": "STATIC", "schedule_name": "random_6", "is_biased_choice":false,"side_choice": "RIGHT", "trial_number":10,"observed_reward":1,"unobserved_reward":1},{"RT":4033,"time": "2018-08-15 02:01:57pm", "schedule_type": "STATIC", "schedule_name": "random_6", "is_biased_choice":false,"side_choice": "RIGHT", "trial_number":11,"observed_reward":1,"unobserved_reward":0},{"RT":7662,"time": "2018-08-15 02:02:05pm", "schedule_type": "STATIC", "schedule_name": "random_6", "is_biased_choice":false,"side_choice": "RIGHT", "trial_number":12,"observed_reward":1,"unobserved_reward":0},{"RT":4258,"time": "2018-08-15 02:02:09pm", "schedule_type": "STATIC", "schedule_name": "random_6", "is_biased_choice":true,"side_choice": "LEFT", "trial_number":13,"observed_reward":0,"unobserved_reward":0},{"RT":5646,"time": "2018-08-15 02:02:15pm", "schedule_type": "STATIC", "schedule_name": "random_6", "is_biased_choice":true,"side_choice": "LEFT", "trial_number":14,"observed_reward":0,"unobserved_reward":0},{"RT":9829,"time": "2018-08-15 02:02:25pm", "schedule_type": "STATIC", "schedule_name": "random_6", "is_biased_choice":false,"side_choice": "RIGHT", "trial_number":15,"observed_reward":0,"unobserved_reward":0},{"RT":4870,"time": "2018-08-15 02:02:29pm", "schedule_type": "STATIC", "schedule_name": "random_6", "is_biased_choice":false,"side_choice": "RIGHT", "trial_number":16,"observed_reward":0,"unobserved_reward":0},{"RT":17575,"time": "2018-08-15 02:02:47pm", "schedule_type": "STATIC", "schedule_name": "random_6", "is_biased_choice":false,"side_choice": "RIGHT", "trial_number":17,"observed_reward":0,"unobserved_reward":0},{"RT":3927,"time": "2018-08-15 02:02:51pm", "schedule_type": "STATIC", "schedule_name": "random_6", "is_biased_choice":false,"side_choice": "RIGHT", "trial_number":18,"observed_reward":0,"unobserved_reward":0},{"RT":4606,"time": "2018-08-15 02:02:56pm", "schedule_type": "STATIC", "schedule_name": "random_6", "is_biased_choice":false,"side_choice": "RIGHT", "trial_number":19,"observed_reward":0,"unobserved_reward":1},{"RT":2626,"time": "2018-08-15 02:02:58pm", "schedule_type": "STATIC", "schedule_name": "random_6", "is_biased_choice":false,"side_choice": "RIGHT", "trial_number":20,"observed_reward":1,"unobserved_reward":1},{"RT":3726,"time": "2018-08-15 02:03:02pm", "schedule_type": "STATIC", "schedule_name": "random_6", "is_biased_choice":true,"side_choice": "LEFT", "trial_number":21,"observed_reward":0,"unobserved_reward":0},{"RT":4890,"time": "2018-08-15 02:03:07pm", "schedule_type": "STATIC", "schedule_name": "random_6", "is_biased_choice":true,"side_choice": "LEFT", "trial_number":22,"observed_reward":0,"unobserved_reward":0},{"RT":3046,"time": "2018-08-15 02:03:10pm", "schedule_type": "STATIC", "schedule_name": "random_6", "is_biased_choice":false,"side_choice": "RIGHT", "trial_number":23,"observed_reward":0,"unobserved_reward":0},{"RT":2232,"time": "2018-08-15 02:03:12pm", "schedule_type": "STATIC", "schedule_name": "random_6", "is_biased_choice":false,"side_choice": "RIGHT", "trial_number":24,"observed_reward":0,"unobserved_reward":1},{"RT":2465,"time": "2018-08-15 02:03:14pm", "schedule_type": "STATIC", "schedule_name": "random_6", "is_biased_choice":false,"side_choice": "RIGHT", "trial_number":25,"observed_reward":0,"unobserved_reward":0},{"RT":3129,"time": "2018-08-15 02:03:18pm", "schedule_type": "STATIC", "schedule_name": "random_6", "is_biased_choice":false,"side_choice": "RIGHT", "trial_number":26,"observed_reward":0,"unobserved_reward":0},{"RT":2224,"time": "2018-08-15 02:03:20pm", "schedule_type": "STATIC", "schedule_name": "random_6", "is_biased_choice":false,"side_choice": "RIGHT", "trial_number":27,"observed_reward":1,"unobserved_reward":1},{"RT":2724,"time": "2018-08-15 02:03:23pm", "schedule_type": "STATIC", "schedule_name": "random_6", "is_biased_choice":false,"side_choice": "RIGHT", "trial_number":28,"observed_reward":1,"unobserved_reward":1},{"RT":7818,"time": "2018-08-15 02:03:30pm", "schedule_type": "STATIC", "schedule_name": "random_6", "is_biased_choice":false,"side_choice": "RIGHT", "trial_number":29,"observed_reward":0,"unobserved_reward":0},{"RT":3725,"time": "2018-08-15 02:03:34pm", "schedule_type": "STATIC", "schedule_name": "random_6", "is_biased_choice":false,"side_choice": "RIGHT", "trial_number":30,"observed_reward":0,"unobserved_reward":0},{"RT":7675,"time": "2018-08-15 02:03:42pm", "schedule_type": "STATIC", "schedule_name": "random_6", "is_biased_choice":false,"side_choice": "RIGHT", "trial_number":31,"observed_reward":0,"unobserved_reward":0},{"RT":14236,"time": "2018-08-15 02:03:56pm", "schedule_type": "STATIC", "schedule_name": "random_6", "is_biased_choice":false,"side_choice": "RIGHT", "trial_number":32,"observed_reward":0,"unobserved_reward":0},{"RT":2707,"time": "2018-08-15 02:03:59pm", "schedule_type": "STATIC", "schedule_name": "random_6", "is_biased_choice":false,"side_choice": "RIGHT", "trial_number":33,"observed_reward":0,"unobserved_reward":0},{"RT":5776,"time": "2018-08-15 02:04:05pm", "schedule_type": "STATIC", "schedule_name": "random_6", "is_biased_choice":false,"side_choice": "RIGHT", "trial_number":34,"observed_reward":1,"unobserved_reward":0},{"RT":3027,"time": "2018-08-15 02:04:07pm", "schedule_type": "STATIC", "schedule_name": "random_6", "is_biased_choice":false,"side_choice": "RIGHT", "trial_number":35,"observed_reward":1,"unobserved_reward":0},{"RT":6307,"time": "2018-08-15 02:04:14pm", "schedule_type": "STATIC", "schedule_name": "random_6", "is_biased_choice":false,"side_choice": "RIGHT", "trial_number":36,"observed_reward":0,"unobserved_reward":1},{"RT":4783,"time": "2018-08-15 02:04:19pm", "schedule_type": "STATIC", "schedule_name": "random_6", "is_biased_choice":false,"side_choice": "RIGHT", "trial_number":37,"observed_reward":0,"unobserved_reward":0},{"RT":3004,"time": "2018-08-15 02:04:22pm", "schedule_type": "STATIC", "schedule_name": "random_6", "is_biased_choice":false,"side_choice": "RIGHT", "trial_number":38,"observed_reward":0,"unobserved_reward":0},{"RT":3008,"time": "2018-08-15 02:04:25pm", "schedule_type": "STATIC", "schedule_name": "random_6", "is_biased_choice":false,"side_choice": "RIGHT", "trial_number":39,"observed_reward":0,"unobserved_reward":0},{"RT":3645,"time": "2018-08-15 02:04:28pm", "schedule_type": "STATIC", "schedule_name": "random_6", "is_biased_choice":false,"side_choice": "RIGHT", "trial_number":40,"observed_reward":0,"unobserved_reward":0},{"RT":5728,"time": "2018-08-15 02:04:34pm", "schedule_type": "STATIC", "schedule_name": "random_6", "is_biased_choice":false,"side_choice": "RIGHT", "trial_number":41,"observed_reward":0,"unobserved_reward":0},{"RT":2730,"time": "2018-08-15 02:04:37pm", "schedule_type": "STATIC", "schedule_name": "random_6", "is_biased_choice":false,"side_choice": "RIGHT", "trial_number":42,"observed_reward":1,"unobserved_reward":0},{"RT":3058,"time": "2018-08-15 02:04:40pm", "schedule_type": "STATIC", "schedule_name": "random_6", "is_biased_choice":false,"side_choice": "RIGHT", "trial_number":43,"observed_reward":0,"unobserved_reward":0},{"RT":3239,"time": "2018-08-15 02:04:43pm", "schedule_type": "STATIC", "schedule_name": "random_6", "is_biased_choice":false,"side_choice": "RIGHT", "trial_number":44,"observed_reward":0,"unobserved_reward":0},{"RT":6071,"time": "2018-08-15 02:04:49pm", "schedule_type": "STATIC", "schedule_name": "random_6", "is_biased_choice":false,"side_choice": "RIGHT", "trial_number":45,"observed_reward":0,"unobserved_reward":0},{"RT":6613,"time": "2018-08-15 02:04:56pm", "schedule_type": "STATIC", "schedule_name": "random_6", "is_biased_choice":false,"side_choice": "RIGHT", "trial_number":46,"observed_reward":1,"unobserved_reward":0},{"RT":4943,"time": "2018-08-15 02:05:01pm", "schedule_type": "STATIC", "schedule_name": "random_6", "is_biased_choice":false,"side_choice": "RIGHT", "trial_number":47,"observed_reward":0,"unobserved_reward":0},{"RT":7534,"time": "2018-08-15 02:05:08pm", "schedule_type": "STATIC", "schedule_name": "random_6", "is_biased_choice":true,"side_choice": "LEFT", "trial_number":48,"observed_reward":0,"unobserved_reward":0},{"RT":2934,"time": "2018-08-15 02:05:11pm", "schedule_type": "STATIC", "schedule_name": "random_6", "is_biased_choice":false,"side_choice": "RIGHT", "trial_number":49,"observed_reward":0,"unobserved_reward":0},{"RT":2670,"time": "2018-08-15 02:05:14pm", "schedule_type": "STATIC", "schedule_name": "random_6", "is_biased_choice":false,"side_choice": "RIGHT", "trial_number":50,"observed_reward":0,"unobserved_reward":1},{"RT":9429,"time": "2018-08-15 02:05:23pm", "schedule_type": "STATIC", "schedule_name": "random_6", "is_biased_choice":true,"side_choice": "LEFT", "trial_number":51,"observed_reward":0,"unobserved_reward":1},{"RT":3539,"time": "2018-08-15 02:05:27pm", "schedule_type": "STATIC", "schedule_name": "random_6", "is_biased_choice":true,"side_choice": "LEFT", "trial_number":52,"observed_reward":0,"unobserved_reward":0},{"RT":2243,"time": "2018-08-15 02:05:29pm", "schedule_type": "STATIC", "schedule_name": "random_6", "is_biased_choice":false,"side_choice": "RIGHT", "trial_number":53,"observed_reward":1,"unobserved_reward":0},{"RT":4327,"time": "2018-08-15 02:05:33pm", "schedule_type": "STATIC", "schedule_name": "random_6", "is_biased_choice":false,"side_choice": "RIGHT", "trial_number":54,"observed_reward":0,"unobserved_reward":0},{"RT":3516,"time": "2018-08-15 02:05:37pm", "schedule_type": "STATIC", "schedule_name": "random_6", "is_biased_choice":false,"side_choice": "RIGHT", "trial_number":55,"observed_reward":0,"unobserved_reward":0},{"RT":4947,"time": "2018-08-15 02:05:42pm", "schedule_type": "STATIC", "schedule_name": "random_6", "is_biased_choice":false,"side_choice": "RIGHT", "trial_number":56,"observed_reward":0,"unobserved_reward":1},{"RT":6845,"time": "2018-08-15 02:05:49pm", "schedule_type": "STATIC", "schedule_name": "random_6", "is_biased_choice":false,"side_choice": "RIGHT", "trial_number":57,"observed_reward":0,"unobserved_reward":0},{"RT":3590,"time": "2018-08-15 02:05:52pm", "schedule_type": "STATIC", "schedule_name": "random_6", "is_biased_choice":false,"side_choice": "RIGHT", "trial_number":58,"observed_reward":0,"unobserved_reward":0},{"RT":2694,"time": "2018-08-15 02:05:55pm", "schedule_type": "STATIC", "schedule_name": "random_6", "is_biased_choice":false,"side_choice": "RIGHT", "trial_number":59,"observed_reward":0,"unobserved_reward":0},{"RT":2666,"time": "2018-08-15 02:05:58pm", "schedule_type": "STATIC", "schedule_name": "random_6", "is_biased_choice":false,"side_choice": "RIGHT", "trial_number":60,"observed_reward":1,"unobserved_reward":1},{"RT":2533,"time": "2018-08-15 02:06:00pm", "schedule_type": "STATIC", "schedule_name": "random_6", "is_biased_choice":false,"side_choice": "RIGHT", "trial_number":61,"observed_reward":0,"unobserved_reward":0},{"RT":3937,"time": "2018-08-15 02:06:04pm", "schedule_type": "STATIC", "schedule_name": "random_6", "is_biased_choice":true,"side_choice": "LEFT", "trial_number":62,"observed_reward":1,"unobserved_reward":0},{"RT":3050,"time": "2018-08-15 02:06:07pm", "schedule_type": "STATIC", "schedule_name": "random_6", "is_biased_choice":false,"side_choice": "RIGHT", "trial_number":63,"observed_reward":0,"unobserved_reward":0},{"RT":2960,"time": "2018-08-15 02:06:10pm", "schedule_type": "STATIC", "schedule_name": "random_6", "is_biased_choice":true,"side_choice": "LEFT", "trial_number":64,"observed_reward":0,"unobserved_reward":0},{"RT":2231,"time": "2018-08-15 02:06:12pm", "schedule_type": "STATIC", "schedule_name": "random_6", "is_biased_choice":false,"side_choice": "RIGHT", "trial_number":65,"observed_reward":0,"unobserved_reward":0},{"RT":2410,"time": "2018-08-15 02:06:15pm", "schedule_type": "STATIC", "schedule_name": "random_6", "is_biased_choice":false,"side_choice": "RIGHT", "trial_number":66,"observed_reward":0,"unobserved_reward":0},{"RT":2801,"time": "2018-08-15 02:06:17pm", "schedule_type": "STATIC", "schedule_name": "random_6", "is_biased_choice":false,"side_choice": "RIGHT", "trial_number":67,"observed_reward":0,"unobserved_reward":0},{"RT":3468,"time": "2018-08-15 02:06:21pm", "schedule_type": "STATIC", "schedule_name": "random_6", "is_biased_choice":false,"side_choice": "RIGHT", "trial_number":68,"observed_reward":0,"unobserved_reward":0},{"RT":3790,"time": "2018-08-15 02:06:25pm", "schedule_type": "STATIC", "schedule_name": "random_6", "is_biased_choice":false,"side_choice": "RIGHT", "trial_number":69,"observed_reward":0,"unobserved_reward":0},{"RT":3316,"time": "2018-08-15 02:06:28pm", "schedule_type": "STATIC", "schedule_name": "random_6", "is_biased_choice":false,"side_choice": "RIGHT", "trial_number":70,"observed_reward":0,"unobserved_reward":1},{"RT":5723,"time": "2018-08-15 02:06:34pm", "schedule_type": "STATIC", "schedule_name": "random_6", "is_biased_choice":false,"side_choice": "RIGHT", "trial_number":71,"observed_reward":0,"unobserved_reward":0},{"RT":4279,"time": "2018-08-15 02:06:38pm", "schedule_type": "STATIC", "schedule_name": "random_6", "is_biased_choice":false,"side_choice": "RIGHT", "trial_number":72,"observed_reward":1,"unobserved_reward":0},{"RT":2228,"time": "2018-08-15 02:06:40pm", "schedule_type": "STATIC", "schedule_name": "random_6", "is_biased_choice":false,"side_choice": "RIGHT", "trial_number":73,"observed_reward":0,"unobserved_reward":1},{"RT":2784,"time": "2018-08-15 02:06:43pm", "schedule_type": "STATIC", "schedule_name": "random_6", "is_biased_choice":false,"side_choice": "RIGHT", "trial_number":74,"observed_reward":0,"unobserved_reward":0},{"RT":3157,"time": "2018-08-15 02:06:46pm", "schedule_type": "STATIC", "schedule_name": "random_6", "is_biased_choice":false,"side_choice": "RIGHT", "trial_number":75,"observed_reward":0,"unobserved_reward":0},{"RT":5187,"time": "2018-08-15 02:06:51pm", "schedule_type": "STATIC", "schedule_name": "random_6", "is_biased_choice":false,"side_choice": "RIGHT", "trial_number":76,"observed_reward":1,"unobserved_reward":1},{"RT":6582,"time": "2018-08-15 02:06:58pm", "schedule_type": "STATIC", "schedule_name": "random_6", "is_biased_choice":false,"side_choice": "RIGHT", "trial_number":77,"observed_reward":0,"unobserved_reward":0},{"RT":4246,"time": "2018-08-15 02:07:02pm", "schedule_type": "STATIC", "schedule_name": "random_6", "is_biased_choice":false,"side_choice": "RIGHT", "trial_number":78,"observed_reward":0,"unobserved_reward":0},{"RT":3346,"time": "2018-08-15 02:07:06pm", "schedule_type": "STATIC", "schedule_name": "random_6", "is_biased_choice":false,"side_choice": "RIGHT", "trial_number":79,"observed_reward":0,"unobserved_reward":0},{"RT":8223,"time": "2018-08-15 02:07:14pm", "schedule_type": "STATIC", "schedule_name": "random_6", "is_biased_choice":false,"side_choice": "RIGHT", "trial_number":80,"observed_reward":1,"unobserved_reward":1},{"RT":12128,"time": "2018-08-15 02:07:26pm", "schedule_type": "STATIC", "schedule_name": "random_6", "is_biased_choice":false,"side_choice": "RIGHT", "trial_number":81,"observed_reward":0,"unobserved_reward":0},{"RT":3477,"time": "2018-08-15 02:07:29pm", "schedule_type": "STATIC", "schedule_name": "random_6", "is_biased_choice":false,"side_choice": "RIGHT", "trial_number":82,"observed_reward":0,"unobserved_reward":0},{"RT":2538,"time": "2018-08-15 02:07:32pm", "schedule_type": "STATIC", "schedule_name": "random_6", "is_biased_choice":false,"side_choice": "RIGHT", "trial_number":83,"observed_reward":1,"unobserved_reward":0},{"RT":2658,"time": "2018-08-15 02:07:35pm", "schedule_type": "STATIC", "schedule_name": "random_6", "is_biased_choice":false,"side_choice": "RIGHT", "trial_number":84,"observed_reward":1,"unobserved_reward":0},{"RT":3070,"time": "2018-08-15 02:07:38pm", "schedule_type": "STATIC", "schedule_name": "random_6", "is_biased_choice":false,"side_choice": "RIGHT", "trial_number":85,"observed_reward":0,"unobserved_reward":0},{"RT":5124,"time": "2018-08-15 02:07:43pm", "schedule_type": "STATIC", "schedule_name": "random_6", "is_biased_choice":false,"side_choice": "RIGHT", "trial_number":86,"observed_reward":0,"unobserved_reward":0},{"RT":4120,"time": "2018-08-15 02:07:47pm", "schedule_type": "STATIC", "schedule_name": "random_6", "is_biased_choice":false,"side_choice": "RIGHT", "trial_number":87,"observed_reward":0,"unobserved_reward":0},{"RT":8605,"time": "2018-08-15 02:07:56pm", "schedule_type": "STATIC", "schedule_name": "random_6", "is_biased_choice":false,"side_choice": "RIGHT", "trial_number":88,"observed_reward":0,"unobserved_reward":0},{"RT":2908,"time": "2018-08-15 02:07:58pm", "schedule_type": "STATIC", "schedule_name": "random_6", "is_biased_choice":false,"side_choice": "RIGHT", "trial_number":89,"observed_reward":1,"unobserved_reward":0},{"RT":8523,"time": "2018-08-15 02:08:07pm", "schedule_type": "STATIC", "schedule_name": "random_6", "is_biased_choice":false,"side_choice": "RIGHT", "trial_number":90,"observed_reward":0,"unobserved_reward":0},{"RT":2981,"time": "2018-08-15 02:08:10pm", "schedule_type": "STATIC", "schedule_name": "random_6", "is_biased_choice":false,"side_choice": "RIGHT", "trial_number":91,"observed_reward":1,"unobserved_reward":0},{"RT":2336,"time": "2018-08-15 02:08:12pm", "schedule_type": "STATIC", "schedule_name": "random_6", "is_biased_choice":false,"side_choice": "RIGHT", "trial_number":92,"observed_reward":0,"unobserved_reward":1},{"RT":2550,"time": "2018-08-15 02:08:15pm", "schedule_type": "STATIC", "schedule_name": "random_6", "is_biased_choice":false,"side_choice": "RIGHT", "trial_number":93,"observed_reward":0,"unobserved_reward":1},{"RT":11624,"time": "2018-08-15 02:08:26pm", "schedule_type": "STATIC", "schedule_name": "random_6", "is_biased_choice":false,"side_choice": "RIGHT", "trial_number":94,"observed_reward":0,"unobserved_reward":0},{"RT":12218,"time": "2018-08-15 02:08:39pm", "schedule_type": "STATIC", "schedule_name": "random_6", "is_biased_choice":true,"side_choice": "LEFT", "trial_number":95,"observed_reward":1,"unobserved_reward":0},{"RT":5164,"time": "2018-08-15 02:08:44pm", "schedule_type": "STATIC", "schedule_name": "random_6", "is_biased_choice":false,"side_choice": "RIGHT", "trial_number":96,"observed_reward":1,"unobserved_reward":0},{"RT":6151,"time": "2018-08-15 02:08:50pm", "schedule_type": "STATIC", "schedule_name": "random_6", "is_biased_choice":false,"side_choice": "RIGHT", "trial_number":97,"observed_reward":1,"unobserved_reward":1},{"RT":4086,"time": "2018-08-15 02:08:54pm", "schedule_type": "STATIC", "schedule_name": "random_6", "is_biased_choice":false,"side_choice": "RIGHT", "trial_number":98,"observed_reward":1,"unobserved_reward":1},