[{"RT":3530,"time": "2018-08-15 01:43:30pm", "schedule_type": "STATIC", "schedule_name": "random_6", "is_biased_choice":false,"side_choice": "RIGHT", "trial_number":0,"observed_reward":0,"unobserved_reward":0},{"RT":3223,"time": "2018-08-15 01:43:34pm", "schedule_type": "STATIC", "schedule_name": "random_6", "is_biased_choice":true,"side_choice": "LEFT", "trial_number":1,"observed_reward":1,"unobserved_reward":0},{"RT":2720,"time": "2018-08-15 01:43:36pm", "schedule_type": "STATIC", "schedule_name": "random_6", "is_biased_choice":false,"side_choice": "RIGHT", "trial_number":2,"observed_reward":1,"unobserved_reward":0},{"RT":2744,"time": "2018-08-15 01:43:39pm", "schedule_type": "STATIC", "schedule_name": "random_6", "is_biased_choice":false,"side_choice": "RIGHT", "trial_number":3,"observed_reward":0,"unobserved_reward":0},{"RT":2344,"time": "2018-08-15 01:43:41pm", "schedule_type": "STATIC", "schedule_name": "random_6", "is_biased_choice":true,"side_choice": "LEFT", "trial_number":4,"observed_reward":0,"unobserved_reward":0},{"RT":2287,"time": "2018-08-15 01:43:44pm", "schedule_type": "STATIC", "schedule_name": "random_6", "is_biased_choice":false,"side_choice": "RIGHT", "trial_number":5,"observed_reward":0,"unobserved_reward":1},{"RT":3193,"time": "2018-08-15 01:43:47pm", "schedule_type": "STATIC", "schedule_name": "random_6", "is_biased_choice":true,"side_choice": "LEFT", "trial_number":6,"observed_reward":1,"unobserved_reward":0},{"RT":2479,"time": "2018-08-15 01:43:49pm", "schedule_type": "STATIC", "schedule_name": "random_6", "is_biased_choice":false,"side_choice": "RIGHT", "trial_number":7,"observed_reward":1,"unobserved_reward":0},{"RT":3282,"time": "2018-08-15 01:43:53pm", "schedule_type": "STATIC", "schedule_name": "random_6", "is_biased_choice":true,"side_choice": "LEFT", "trial_number":8,"observed_reward":0,"unobserved_reward":0},{"RT":2333,"time": "2018-08-15 01:43:55pm", "schedule_type": "STATIC", "schedule_name": "random_6", "is_biased_choice":false,"side_choice": "RIGHT", "trial_number":9,"observed_reward":0,"unobserved_reward":1},{"RT":2496,"time": "2018-08-15 01:43:57pm", "schedule_type": "STATIC", "schedule_name": "random_6", "is_biased_choice":false,"side_choice": "RIGHT", "trial_number":10,"observed_reward":1,"unobserved_reward":1},{"RT":2311,"time": "2018-08-15 01:44:00pm", "schedule_type": "STATIC", "schedule_name": "random_6", "is_biased_choice":false,"side_choice": "RIGHT", "trial_number":11,"observed_reward":1,"unobserved_reward":0},{"RT":2544,"time": "2018-08-15 01:44:02pm", "schedule_type": "STATIC", "schedule_name": "random_6", "is_biased_choice":false,"side_choice": "RIGHT", "trial_number":12,"observed_reward":1,"unobserved_reward":0},{"RT":2256,"time": "2018-08-15 01:44:05pm", "schedule_type": "STATIC", "schedule_name": "random_6", "is_biased_choice":false,"side_choice": "RIGHT", "trial_number":13,"observed_reward":0,"unobserved_reward":0},{"RT":2457,"time": "2018-08-15 01:44:07pm", "schedule_type": "STATIC", "schedule_name": "random_6", "is_biased_choice":false,"side_choice": "RIGHT", "trial_number":14,"observed_reward":0,"unobserved_reward":0},{"RT":2208,"time": "2018-08-15 01:44:09pm", "schedule_type": "STATIC", "schedule_name": "random_6", "is_biased_choice":false,"side_choice": "RIGHT", "trial_number":15,"observed_reward":0,"unobserved_reward":0},{"RT":2135,"time": "2018-08-15 01:44:11pm", "schedule_type": "STATIC", "schedule_name": "random_6", "is_biased_choice":false,"side_choice": "RIGHT", "trial_number":16,"observed_reward":0,"unobserved_reward":0},{"RT":2400,"time": "2018-08-15 01:44:14pm", "schedule_type": "STATIC", "schedule_name": "random_6", "is_biased_choice":true,"side_choice": "LEFT", "trial_number":17,"observed_reward":0,"unobserved_reward":0},{"RT":2248,"time": "2018-08-15 01:44:16pm", "schedule_type": "STATIC", "schedule_name": "random_6", "is_biased_choice":false,"side_choice": "RIGHT", "trial_number":18,"observed_reward":0,"unobserved_reward":0},{"RT":2440,"time": "2018-08-15 01:44:18pm", "schedule_type": "STATIC", "schedule_name": "random_6", "is_biased_choice":true,"side_choice": "LEFT", "trial_number":19,"observed_reward":1,"unobserved_reward":0},{"RT":2552,"time": "2018-08-15 01:44:21pm", "schedule_type": "STATIC", "schedule_name": "random_6", "is_biased_choice":false,"side_choice": "RIGHT", "trial_number":20,"observed_reward":1,"unobserved_reward":1},{"RT":2616,"time": "2018-08-15 01:44:25pm", "schedule_type": "STATIC", "schedule_name": "random_6", "is_biased_choice":false,"side_choice": "RIGHT", "trial_number":21,"observed_reward":0,"unobserved_reward":0},{"RT":2424,"time": "2018-08-15 01:44:26pm", "schedule_type": "STATIC", "schedule_name": "random_6", "is_biased_choice":true,"side_choice": "LEFT", "trial_number":22,"observed_reward":0,"unobserved_reward":0},{"RT":2128,"time": "2018-08-15 01:44:28pm", "schedule_type": "STATIC", "schedule_name": "random_6", "is_biased_choice":false,"side_choice": "RIGHT", "trial_number":23,"observed_reward":0,"unobserved_reward":0},{"RT":2600,"time": "2018-08-15 01:44:31pm", "schedule_type": "STATIC", "schedule_name": "random_6", "is_biased_choice":true,"side_choice": "LEFT", "trial_number":24,"observed_reward":1,"unobserved_reward":0},{"RT":2617,"time": "2018-08-15 01:44:33pm", "schedule_type": "STATIC", "schedule_name": "random_6", "is_biased_choice":false,"side_choice": "RIGHT", "trial_number":25,"observed_reward":0,"unobserved_reward":0},{"RT":2870,"time": "2018-08-15 01:44:36pm", "schedule_type": "STATIC", "schedule_name": "random_6", "is_biased_choice":true,"side_choice": "LEFT", "trial_number":26,"observed_reward":0,"unobserved_reward":0},{"RT":2960,"time": "2018-08-15 01:44:39pm", "schedule_type": "STATIC", "schedule_name": "random_6", "is_biased_choice":false,"side_choice": "RIGHT", "trial_number":27,"observed_reward":1,"unobserved_reward":1},{"RT":2880,"time": "2018-08-15 01:44:42pm", "schedule_type": "STATIC", "schedule_name": "random_6", "is_biased_choice":false,"side_choice": "RIGHT", "trial_number":28,"observed_reward":1,"unobserved_reward":1},{"RT":2337,"time": "2018-08-15 01:44:45pm", "schedule_type": "STATIC", "schedule_name": "random_6", "is_biased_choice":false,"side_choice": "RIGHT", "trial_number":29,"observed_reward":0,"unobserved_reward":0},{"RT":2623,"time": "2018-08-15 01:44:47pm", "schedule_type": "STATIC", "schedule_name": "random_6", "is_biased_choice":true,"side_choice": "LEFT", "trial_number":30,"observed_reward":0,"unobserved_reward":0},{"RT":2536,"time": "2018-08-15 01:44:50pm", "schedule_type": "STATIC", "schedule_name": "random_6", "is_biased_choice":true,"side_choice": "LEFT", "trial_number":31,"observed_reward":0,"unobserved_reward":0},{"RT":2696,"time": "2018-08-15 01:44:52pm", "schedule_type": "STATIC", "schedule_name": "random_6", "is_biased_choice":true,"side_choice": "LEFT", "trial_number":32,"observed_reward":0,"unobserved_reward":0},{"RT":2409,"time": "2018-08-15 01:44:55pm", "schedule_type": "STATIC", "schedule_name": "random_6", "is_biased_choice":false,"side_choice": "RIGHT", "trial_number":33,"observed_reward":0,"unobserved_reward":0},{"RT":2656,"time": "2018-08-15 01:44:57pm", "schedule_type": "STATIC", "schedule_name": "random_6", "is_biased_choice":true,"side_choice": "LEFT", "trial_number":34,"observed_reward":0,"unobserved_reward":1},{"RT":2568,"time": "2018-08-15 01:45:00pm", "schedule_type": "STATIC", "schedule_name": "random_6", "is_biased_choice":false,"side_choice": "RIGHT", "trial_number":35,"observed_reward":1,"unobserved_reward":0},{"RT":2567,"time": "2018-08-15 01:45:03pm", "schedule_type": "STATIC", "schedule_name": "random_6", "is_biased_choice":false,"side_choice": "RIGHT", "trial_number":36,"observed_reward":0,"unobserved_reward":1},{"RT":3953,"time": "2018-08-15 01:45:07pm", "schedule_type": "STATIC", "schedule_name": "random_6", "is_biased_choice":false,"side_choice": "RIGHT", "trial_number":37,"observed_reward":0,"unobserved_reward":0},{"RT":2503,"time": "2018-08-15 01:45:09pm", "schedule_type": "STATIC", "schedule_name": "random_6", "is_biased_choice":true,"side_choice": "LEFT", "trial_number":38,"observed_reward":0,"unobserved_reward":0},{"RT":2360,"time": "2018-08-15 01:45:11pm", "schedule_type": "STATIC", "schedule_name": "random_6", "is_biased_choice":true,"side_choice": "LEFT", "trial_number":39,"observed_reward":0,"unobserved_reward":0},{"RT":2608,"time": "2018-08-15 01:45:14pm", "schedule_type": "STATIC", "schedule_name": "random_6", "is_biased_choice":false,"side_choice": "RIGHT", "trial_number":40,"observed_reward":0,"unobserved_reward":0},{"RT":2400,"time": "2018-08-15 01:45:16pm", "schedule_type": "STATIC", "schedule_name": "random_6", "is_biased_choice":false,"side_choice": "RIGHT", "trial_number":41,"observed_reward":0,"unobserved_reward":0},{"RT":2600,"time": "2018-08-15 01:45:19pm", "schedule_type": "STATIC", "schedule_name": "random_6", "is_biased_choice":false,"side_choice": "RIGHT", "trial_number":42,"observed_reward":1,"unobserved_reward":0},{"RT":2303,"time": "2018-08-15 01:45:21pm", "schedule_type": "STATIC", "schedule_name": "random_6", "is_biased_choice":false,"side_choice": "RIGHT", "trial_number":43,"observed_reward":0,"unobserved_reward":0},{"RT":2289,"time": "2018-08-15 01:45:25pm", "schedule_type": "STATIC", "schedule_name": "random_6", "is_biased_choice":true,"side_choice": "LEFT", "trial_number":44,"observed_reward":0,"unobserved_reward":0},{"RT":2343,"time": "2018-08-15 01:45:26pm", "schedule_type": "STATIC", "schedule_name": "random_6", "is_biased_choice":false,"side_choice": "RIGHT", "trial_number":45,"observed_reward":0,"unobserved_reward":0},{"RT":2409,"time": "2018-08-15 01:45:28pm", "schedule_type": "STATIC", "schedule_name": "random_6", "is_biased_choice":true,"side_choice": "LEFT", "trial_number":46,"observed_reward":0,"unobserved_reward":1},{"RT":2632,"time": "2018-08-15 01:45:31pm", "schedule_type": "STATIC", "schedule_name": "random_6", "is_biased_choice":false,"side_choice": "RIGHT", "trial_number":47,"observed_reward":0,"unobserved_reward":0},{"RT":2264,"time": "2018-08-15 01:45:33pm", "schedule_type": "STATIC", "schedule_name": "random_6", "is_biased_choice":false,"side_choice": "RIGHT", "trial_number":48,"observed_reward":0,"unobserved_reward":0},{"RT":2360,"time": "2018-08-15 01:45:36pm", "schedule_type": "STATIC", "schedule_name": "random_6", "is_biased_choice":false,"side_choice": "RIGHT", "trial_number":49,"observed_reward":0,"unobserved_reward":0},{"RT":2560,"time": "2018-08-15 01:45:38pm", "schedule_type": "STATIC", "schedule_name": "random_6", "is_biased_choice":true,"side_choice": "LEFT", "trial_number":50,"observed_reward":1,"unobserved_reward":0},{"RT":2543,"time": "2018-08-15 01:45:41pm", "schedule_type": "STATIC", "schedule_name": "random_6", "is_biased_choice":true,"side_choice": "LEFT", "trial_number":51,"observed_reward":0,"unobserved_reward":1},{"RT":2368,"time": "2018-08-15 01:45:43pm", "schedule_type": "STATIC", "schedule_name": "random_6", "is_biased_choice":false,"side_choice": "RIGHT", "trial_number":52,"observed_reward":0,"unobserved_reward":0},{"RT":2248,"time": "2018-08-15 01:45:45pm", "schedule_type": "STATIC", "schedule_name": "random_6", "is_biased_choice":true,"side_choice": "LEFT", "trial_number":53,"observed_reward":0,"unobserved_reward":1},{"RT":2336,"time": "2018-08-15 01:45:48pm", "schedule_type": "STATIC", "schedule_name": "random_6", "is_biased_choice":false,"side_choice": "RIGHT", "trial_number":54,"observed_reward":0,"unobserved_reward":0},{"RT":2192,"time": "2018-08-15 01:45:50pm", "schedule_type": "STATIC", "schedule_name": "random_6", "is_biased_choice":false,"side_choice": "RIGHT", "trial_number":55,"observed_reward":0,"unobserved_reward":0},{"RT":2200,"time": "2018-08-15 01:45:52pm", "schedule_type": "STATIC", "schedule_name": "random_6", "is_biased_choice":false,"side_choice": "RIGHT", "trial_number":56,"observed_reward":0,"unobserved_reward":1},{"RT":2248,"time": "2018-08-15 01:45:54pm", "schedule_type": "STATIC", "schedule_name": "random_6", "is_biased_choice":true,"side_choice": "LEFT", "trial_number":57,"observed_reward":0,"unobserved_reward":0},{"RT":2220,"time": "2018-08-15 01:45:56pm", "schedule_type": "STATIC", "schedule_name": "random_6", "is_biased_choice":false,"side_choice": "RIGHT", "trial_number":58,"observed_reward":0,"unobserved_reward":0},{"RT":2328,"time": "2018-08-15 01:45:59pm", "schedule_type": "STATIC", "schedule_name": "random_6", "is_biased_choice":true,"side_choice": "LEFT", "trial_number":59,"observed_reward":0,"unobserved_reward":0},{"RT":2912,"time": "2018-08-15 01:46:02pm", "schedule_type": "STATIC", "schedule_name": "random_6", "is_biased_choice":false,"side_choice": "RIGHT", "trial_number":60,"observed_reward":1,"unobserved_reward":1},{"RT":2255,"time": "2018-08-15 01:46:04pm", "schedule_type": "STATIC", "schedule_name": "random_6", "is_biased_choice":false,"side_choice": "RIGHT", "trial_number":61,"observed_reward":0,"unobserved_reward":0},{"RT":2288,"time": "2018-08-15 01:46:06pm", "schedule_type": "STATIC", "schedule_name": "random_6", "is_biased_choice":true,"side_choice": "LEFT", "trial_number":62,"observed_reward":1,"unobserved_reward":0},{"RT":2383,"time": "2018-08-15 01:46:09pm", "schedule_type": "STATIC", "schedule_name": "random_6", "is_biased_choice":true,"side_choice": "LEFT", "trial_number":63,"observed_reward":0,"unobserved_reward":0},{"RT":2393,"time": "2018-08-15 01:46:11pm", "schedule_type": "STATIC", "schedule_name": "random_6", "is_biased_choice":false,"side_choice": "RIGHT", "trial_number":64,"observed_reward":0,"unobserved_reward":0},{"RT":2503,"time": "2018-08-15 01:46:14pm", "schedule_type": "STATIC", "schedule_name": "random_6", "is_biased_choice":true,"side_choice": "LEFT", "trial_number":65,"observed_reward":0,"unobserved_reward":0},{"RT":2225,"time": "2018-08-15 01:46:16pm", "schedule_type": "STATIC", "schedule_name": "random_6", "is_biased_choice":false,"side_choice": "RIGHT", "trial_number":66,"observed_reward":0,"unobserved_reward":0},{"RT":2295,"time": "2018-08-15 01:46:18pm", "schedule_type": "STATIC", "schedule_name": "random_6", "is_biased_choice":true,"side_choice": "LEFT", "trial_number":67,"observed_reward":0,"unobserved_reward":0},{"RT":2257,"time": "2018-08-15 01:46:20pm", "schedule_type": "STATIC", "schedule_name": "random_6", "is_biased_choice":false,"side_choice": "RIGHT", "trial_number":68,"observed_reward":0,"unobserved_reward":0},{"RT":2343,"time": "2018-08-15 01:46:23pm", "schedule_type": "STATIC", "schedule_name": "random_6", "is_biased_choice":false,"side_choice": "RIGHT", "trial_number":69,"observed_reward":0,"unobserved_reward":0},{"RT":2192,"time": "2018-08-15 01:46:26pm", "schedule_type": "STATIC", "schedule_name": "random_6", "is_biased_choice":false,"side_choice": "RIGHT", "trial_number":70,"observed_reward":0,"unobserved_reward":1},{"RT":3176,"time": "2018-08-15 01:46:28pm", "schedule_type": "STATIC", "schedule_name": "random_6", "is_biased_choice":true,"side_choice": "LEFT", "trial_number":71,"observed_reward":0,"unobserved_reward":0},{"RT":2632,"time": "2018-08-15 01:46:31pm", "schedule_type": "STATIC", "schedule_name": "random_6", "is_biased_choice":true,"side_choice": "LEFT", "trial_number":72,"observed_reward":0,"unobserved_reward":1},{"RT":2192,"time": "2018-08-15 01:46:33pm", "schedule_type": "STATIC", "schedule_name": "random_6", "is_biased_choice":true,"side_choice": "LEFT", "trial_number":73,"observed_reward":1,"unobserved_reward":0},{"RT":2431,"time": "2018-08-15 01:46:35pm", "schedule_type": "STATIC", "schedule_name": "random_6", "is_biased_choice":true,"side_choice": "LEFT", "trial_number":74,"observed_reward":0,"unobserved_reward":0},{"RT":2770,"time": "2018-08-15 01:46:38pm", "schedule_type": "STATIC", "schedule_name": "random_6", "is_biased_choice":true,"side_choice": "LEFT", "trial_number":75,"observed_reward":0,"unobserved_reward":0},{"RT":2510,"time": "2018-08-15 01:46:41pm", "schedule_type": "STATIC", "schedule_name": "random_6", "is_biased_choice":false,"side_choice": "RIGHT", "trial_number":76,"observed_reward":1,"unobserved_reward":1},{"RT":2545,"time": "2018-08-15 01:46:43pm", "schedule_type": "STATIC", "schedule_name": "random_6", "is_biased_choice":false,"side_choice": "RIGHT", "trial_number":77,"observed_reward":0,"unobserved_reward":0},{"RT":2224,"time": "2018-08-15 01:46:45pm", "schedule_type": "STATIC", "schedule_name": "random_6", "is_biased_choice":false,"side_choice": "RIGHT", "trial_number":78,"observed_reward":0,"unobserved_reward":0},{"RT":2248,"time": "2018-08-15 01:46:48pm", "schedule_type": "STATIC", "schedule_name": "random_6", "is_biased_choice":true,"side_choice": "LEFT", "trial_number":79,"observed_reward":0,"unobserved_reward":0},{"RT":2175,"time": "2018-08-15 01:46:50pm", "schedule_type": "STATIC", "schedule_name": "random_6", "is_biased_choice":false,"side_choice": "RIGHT", "trial_number":80,"observed_reward":1,"unobserved_reward":1},{"RT":2281,"time": "2018-08-15 01:46:52pm", "schedule_type": "STATIC", "schedule_name": "random_6", "is_biased_choice":true,"side_choice": "LEFT", "trial_number":81,"observed_reward":0,"unobserved_reward":0},{"RT":2720,"time": "2018-08-15 01:46:55pm", "schedule_type": "STATIC", "schedule_name": "random_6", "is_biased_choice":false,"side_choice": "RIGHT", "trial_number":82,"observed_reward":0,"unobserved_reward":0},{"RT":2458,"time": "2018-08-15 01:46:57pm", "schedule_type": "STATIC", "schedule_name": "random_6", "is_biased_choice":true,"side_choice": "LEFT", "trial_number":83,"observed_reward":0,"unobserved_reward":1},{"RT":2680,"time": "2018-08-15 01:47:00pm", "schedule_type": "STATIC", "schedule_name": "random_6", "is_biased_choice":true,"side_choice": "LEFT", "trial_number":84,"observed_reward":0,"unobserved_reward":1},{"RT":2328,"time": "2018-08-15 01:47:02pm", "schedule_type": "STATIC", "schedule_name": "random_6", "is_biased_choice":true,"side_choice": "LEFT", "trial_number":85,"observed_reward":0,"unobserved_reward":0},{"RT":2312,"time": "2018-08-15 01:47:05pm", "schedule_type": "STATIC", "schedule_name": "random_6", "is_biased_choice":true,"side_choice": "LEFT", "trial_number":86,"observed_reward":0,"unobserved_reward":0},{"RT":2417,"time": "2018-08-15 01:47:07pm", "schedule_type": "STATIC", "schedule_name": "random_6", "is_biased_choice":true,"side_choice": "LEFT", "trial_number":87,"observed_reward":0,"unobserved_reward":0},{"RT":2287,"time": "2018-08-15 01:47:09pm", "schedule_type": "STATIC", "schedule_name": "random_6", "is_biased_choice":true,"side_choice": "LEFT", "trial_number":88,"observed_reward":0,"unobserved_reward":0},{"RT":2297,"time": "2018-08-15 01:47:12pm", "schedule_type": "STATIC", "schedule_name": "random_6", "is_biased_choice":false,"side_choice": "RIGHT", "trial_number":89,"observed_reward":1,"unobserved_reward":0},{"RT":2319,"time": "2018-08-15 01:47:14pm", "schedule_type": "STATIC", "schedule_name": "random_6", "is_biased_choice":false,"side_choice": "RIGHT", "trial_number":90,"observed_reward":0,"unobserved_reward":0},{"RT":2256,"time": "2018-08-15 01:47:16pm", "schedule_type": "STATIC", "schedule_name": "random_6", "is_biased_choice":true,"side_choice": "LEFT", "trial_number":91,"observed_reward":0,"unobserved_reward":1},{"RT":2376,"time": "2018-08-15 01:47:18pm", "schedule_type": "STATIC", "schedule_name": "random_6", "is_biased_choice":false,"side_choice": "RIGHT", "trial_number":92,"observed_reward":0,"unobserved_reward":1},{"RT":2616,"time": "2018-08-15 01:47:21pm", "schedule_type": "STATIC", "schedule_name": "random_6", "is_biased_choice":false,"side_choice": "RIGHT", "trial_number":93,"observed_reward":0,"unobserved_reward":1},{"RT":2559,"time": "2018-08-15 01:47:24pm", "schedule_type": "STATIC", "schedule_name": "random_6", "is_biased_choice":true,"side_choice": "LEFT", "trial_number":94,"observed_reward":0,"unobserved_reward":0},{"RT":2369,"time": "2018-08-15 01:47:28pm", "schedule_type": "STATIC", "schedule_name": "random_6", "is_biased_choice":false,"side_choice": "RIGHT", "trial_number":95,"observed_reward":0,"unobserved_reward":1},{"RT":3024,"time": "2018-08-15 01:47:29pm", "schedule_type": "STATIC", "schedule_name": "random_6", "is_biased_choice":true,"side_choice": "LEFT", "trial_number":96,"observed_reward":0,"unobserved_reward":1},{"RT":3007,"time": "2018-08-15 01:47:32pm", "schedule_type": "STATIC", "schedule_name": "random_6", "is_biased_choice":true,"side_choice": "LEFT", "trial_number":97,"observed_reward":1,"unobserved_reward":1},{"RT":2504,"time": "2018-08-15 01:47:35pm", "schedule_type": "STATIC", "schedule_name": "random_6", "is_biased_choice":false,"side_choice": "RIGHT", "trial_number":98,"observed_reward":1,"unobserved_reward":1},{"RT":2392,"time": "2018-08-15 01:47:37pm", "schedule_type": "STATIC", "schedule_name": "random_6", "is_biased_choice":true,"side_choice": "LEFT", "trial_number":99,"observed_reward":1,"unobserved_reward":0},