trial_number, time, schedule_type, schedule_name, is_biased_choice, side_choice, RT, observed_reward, unobserved_reward, biased_reward, unbiased_reward
0,2018-08-15 03:26:57pm, STATIC, random_2, false, LEFT, 857, 1, 0, 0, 1
1,2018-08-15 03:27:00pm, STATIC, random_2, true, RIGHT, 3125, 1, 0, 1, 0
2,2018-08-15 03:27:03pm, STATIC, random_2, false, LEFT, 2750, 0, 0, 0, 0
3,2018-08-15 03:27:06pm, STATIC, random_2, true, RIGHT, 2773, 0, 0, 0, 0
4,2018-08-15 03:27:08pm, STATIC, random_2, true, RIGHT, 2695, 0, 1, 0, 1
5,2018-08-15 03:27:11pm, STATIC, random_2, false, LEFT, 2621, 1, 0, 0, 1
6,2018-08-15 03:27:13pm, STATIC, random_2, false, LEFT, 2320, 0, 0, 0, 0
7,2018-08-15 03:27:16pm, STATIC, random_2, false, LEFT, 2633, 1, 1, 1, 1
8,2018-08-15 03:27:18pm, STATIC, random_2, true, RIGHT, 2338, 0, 0, 0, 0
9,2018-08-15 03:27:21pm, STATIC, random_2, false, LEFT, 2302, 1, 0, 0, 1
10,2018-08-15 03:27:23pm, STATIC, random_2, false, LEFT, 2200, 0, 0, 0, 0
11,2018-08-15 03:27:25pm, STATIC, random_2, true, RIGHT, 2470, 0, 0, 0, 0
12,2018-08-15 03:27:28pm, STATIC, random_2, true, RIGHT, 2739, 0, 1, 0, 1
13,2018-08-15 03:27:30pm, STATIC, random_2, false, LEFT, 2257, 0, 0, 0, 0
14,2018-08-15 03:27:33pm, STATIC, random_2, false, LEFT, 2347, 0, 1, 1, 0
15,2018-08-15 03:27:35pm, STATIC, random_2, false, LEFT, 2387, 1, 0, 0, 1
16,2018-08-15 03:27:37pm, STATIC, random_2, false, LEFT, 2168, 0, 0, 0, 0
17,2018-08-15 03:27:39pm, STATIC, random_2, false, LEFT, 2217, 0, 0, 0, 0
18,2018-08-15 03:27:42pm, STATIC, random_2, false, LEFT, 2204, 0, 1, 1, 0
19,2018-08-15 03:27:44pm, STATIC, random_2, true, RIGHT, 2218, 0, 1, 0, 1
20,2018-08-15 03:27:46pm, STATIC, random_2, true, RIGHT, 2402, 0, 0, 0, 0
21,2018-08-15 03:27:48pm, STATIC, random_2, true, RIGHT, 2212, 0, 0, 0, 0
22,2018-08-15 03:27:51pm, STATIC, random_2, true, RIGHT, 2239, 0, 1, 0, 1
23,2018-08-15 03:27:53pm, STATIC, random_2, false, LEFT, 2172, 0, 0, 0, 0
24,2018-08-15 03:27:55pm, STATIC, random_2, true, RIGHT, 2368, 0, 0, 0, 0
25,2018-08-15 03:27:57pm, STATIC, random_2, true, RIGHT, 2264, 1, 1, 1, 1
26,2018-08-15 03:28:00pm, STATIC, random_2, true, RIGHT, 2246, 1, 0, 1, 0
27,2018-08-15 03:28:02pm, STATIC, random_2, true, RIGHT, 2285, 0, 0, 0, 0
28,2018-08-15 03:28:04pm, STATIC, random_2, false, LEFT, 2217, 0, 0, 0, 0
29,2018-08-15 03:28:07pm, STATIC, random_2, true, RIGHT, 2303, 0, 1, 0, 1
30,2018-08-15 03:28:09pm, STATIC, random_2, false, LEFT, 2149, 0, 1, 1, 0
31,2018-08-15 03:28:11pm, STATIC, random_2, false, LEFT, 2169, 0, 1, 1, 0
32,2018-08-15 03:28:13pm, STATIC, random_2, true, RIGHT, 2183, 0, 0, 0, 0
33,2018-08-15 03:28:16pm, STATIC, random_2, true, RIGHT, 2812, 0, 0, 0, 0
34,2018-08-15 03:28:18pm, STATIC, random_2, false, LEFT, 2444, 1, 0, 0, 1
35,2018-08-15 03:28:20pm, STATIC, random_2, false, LEFT, 2171, 0, 0, 0, 0
36,2018-08-15 03:28:23pm, STATIC, random_2, true, RIGHT, 2569, 0, 0, 0, 0
37,2018-08-15 03:28:25pm, STATIC, random_2, true, RIGHT, 2282, 1, 0, 1, 0
38,2018-08-15 03:28:27pm, STATIC, random_2, false, LEFT, 2173, 1, 1, 1, 1
39,2018-08-15 03:28:30pm, STATIC, random_2, true, RIGHT, 2200, 0, 0, 0, 0
40,2018-08-15 03:28:32pm, STATIC, random_2, false, LEFT, 2170, 0, 1, 1, 0
41,2018-08-15 03:28:34pm, STATIC, random_2, true, RIGHT, 2301, 0, 0, 0, 0
42,2018-08-15 03:28:37pm, STATIC, random_2, true, RIGHT, 2347, 0, 0, 0, 0
43,2018-08-15 03:28:39pm, STATIC, random_2, false, LEFT, 2568, 0, 0, 0, 0
44,2018-08-15 03:28:41pm, STATIC, random_2, false, LEFT, 2148, 0, 0, 0, 0
45,2018-08-15 03:28:43pm, STATIC, random_2, true, RIGHT, 2267, 0, 0, 0, 0
46,2018-08-15 03:28:46pm, STATIC, random_2, true, RIGHT, 2383, 1, 0, 1, 0
47,2018-08-15 03:28:48pm, STATIC, random_2, true, RIGHT, 2153, 1, 0, 1, 0
48,2018-08-15 03:28:51pm, STATIC, random_2, true, RIGHT, 2491, 0, 0, 0, 0
49,2018-08-15 03:28:53pm, STATIC, random_2, false, LEFT, 2250, 0, 0, 0, 0
50,2018-08-15 03:28:55pm, STATIC, random_2, true, RIGHT, 2213, 0, 0, 0, 0
51,2018-08-15 03:28:57pm, STATIC, random_2, true, RIGHT, 2205, 0, 0, 0, 0
52,2018-08-15 03:28:59pm, STATIC, random_2, false, LEFT, 2167, 1, 0, 0, 1
53,2018-08-15 03:29:02pm, STATIC, random_2, false, LEFT, 2187, 0, 0, 0, 0
54,2018-08-15 03:29:04pm, STATIC, random_2, true, RIGHT, 2350, 1, 1, 1, 1
55,2018-08-15 03:29:06pm, STATIC, random_2, true, RIGHT, 2188, 1, 0, 1, 0
56,2018-08-15 03:29:08pm, STATIC, random_2, true, RIGHT, 2407, 0, 0, 0, 0
57,2018-08-15 03:29:11pm, STATIC, random_2, true, RIGHT, 2313, 1, 1, 1, 1
58,2018-08-15 03:29:15pm, STATIC, random_2, false, LEFT, 2214, 0, 0, 0, 0
59,2018-08-15 03:29:16pm, STATIC, random_2, true, RIGHT, 2792, 0, 0, 0, 0
60,2018-08-15 03:29:18pm, STATIC, random_2, false, LEFT, 2302, 0, 1, 1, 0
61,2018-08-15 03:29:20pm, STATIC, random_2, false, LEFT, 2185, 0, 0, 0, 0
62,2018-08-15 03:29:23pm, STATIC, random_2, true, RIGHT, 2634, 0, 0, 0, 0
63,2018-08-15 03:29:25pm, STATIC, random_2, true, RIGHT, 2184, 0, 0, 0, 0
64,2018-08-15 03:29:27pm, STATIC, random_2, false, LEFT, 2300, 0, 0, 0, 0
65,2018-08-15 03:29:30pm, STATIC, random_2, false, LEFT, 2142, 0, 0, 0, 0
66,2018-08-15 03:29:32pm, STATIC, random_2, true, RIGHT, 2153, 0, 0, 0, 0
67,2018-08-15 03:29:34pm, STATIC, random_2, true, RIGHT, 2166, 0, 0, 0, 0
68,2018-08-15 03:29:36pm, STATIC, random_2, false, LEFT, 2186, 0, 0, 0, 0
69,2018-08-15 03:29:38pm, STATIC, random_2, true, RIGHT, 2204, 1, 0, 1, 0
70,2018-08-15 03:29:40pm, STATIC, random_2, true, RIGHT, 2198, 0, 1, 0, 1
71,2018-08-15 03:29:43pm, STATIC, random_2, false, LEFT, 2539, 0, 1, 1, 0
72,2018-08-15 03:29:46pm, STATIC, random_2, true, RIGHT, 2533, 0, 0, 0, 0
73,2018-08-15 03:29:48pm, STATIC, random_2, false, LEFT, 2179, 0, 0, 0, 0
74,2018-08-15 03:29:50pm, STATIC, random_2, false, LEFT, 2227, 1, 0, 0, 1
75,2018-08-15 03:29:52pm, STATIC, random_2, false, LEFT, 2186, 0, 0, 0, 0
76,2018-08-15 03:29:54pm, STATIC, random_2, true, RIGHT, 2177, 0, 0, 0, 0
77,2018-08-15 03:29:57pm, STATIC, random_2, true, RIGHT, 2551, 0, 0, 0, 0
78,2018-08-15 03:29:59pm, STATIC, random_2, true, RIGHT, 2228, 1, 0, 1, 0
79,2018-08-15 03:30:02pm, STATIC, random_2, true, RIGHT, 2485, 0, 1, 0, 1
80,2018-08-15 03:30:04pm, STATIC, random_2, true, RIGHT, 2637, 0, 0, 0, 0
81,2018-08-15 03:30:06pm, STATIC, random_2, false, LEFT, 2230, 1, 1, 1, 1
82,2018-08-15 03:30:09pm, STATIC, random_2, false, LEFT, 2191, 0, 0, 0, 0
83,2018-08-15 03:30:11pm, STATIC, random_2, false, LEFT, 2220, 0, 1, 1, 0
84,2018-08-15 03:30:13pm, STATIC, random_2, false, LEFT, 2288, 1, 0, 0, 1
85,2018-08-15 03:30:15pm, STATIC, random_2, false, LEFT, 2086, 0, 1, 1, 0
86,2018-08-15 03:30:17pm, STATIC, random_2, false, LEFT, 2048, 0, 0, 0, 0
87,2018-08-15 03:30:19pm, STATIC, random_2, true, RIGHT, 2106, 0, 0, 0, 0
88,2018-08-15 03:30:21pm, STATIC, random_2, false, LEFT, 2066, 0, 0, 0, 0
89,2018-08-15 03:30:24pm, STATIC, random_2, false, LEFT, 2218, 0, 0, 0, 0
90,2018-08-15 03:30:26pm, STATIC, random_2, true, RIGHT, 2186, 0, 0, 0, 0
91,2018-08-15 03:30:30pm, STATIC, random_2, false, LEFT, 3718, 1, 0, 0, 1
92,2018-08-15 03:30:32pm, STATIC, random_2, false, LEFT, 2184, 0, 0, 0, 0
93,2018-08-15 03:30:34pm, STATIC, random_2, false, LEFT, 2571, 1, 0, 0, 1
94,2018-08-15 03:30:37pm, STATIC, random_2, false, LEFT, 2838, 1, 0, 0, 1
95,2018-08-15 03:30:39pm, STATIC, random_2, false, LEFT, 2168, 0, 1, 1, 0
96,2018-08-15 03:30:42pm, STATIC, random_2, false, LEFT, 2485, 0, 0, 0, 0
97,2018-08-15 03:30:44pm, STATIC, random_2, false, LEFT, 2168, 0, 0, 0, 0
98,2018-08-15 03:30:46pm, STATIC, random_2, true, RIGHT, 2228, 1, 0, 1, 0
99,2018-08-15 03:30:48pm, STATIC, random_2, false, LEFT, 2120, 1, 0, 0, 1
