[{"RT":3391,"time": "2018-08-15 05:30:04pm", "schedule_type": "STATIC", "schedule_name": "random_2", "is_biased_choice":true,"side_choice": "RIGHT", "trial_number":0,"observed_reward":0,"unobserved_reward":1},{"RT":3184,"time": "2018-08-15 05:30:07pm", "schedule_type": "STATIC", "schedule_name": "random_2", "is_biased_choice":false,"side_choice": "LEFT", "trial_number":1,"observed_reward":0,"unobserved_reward":1},{"RT":2855,"time": "2018-08-15 05:30:10pm", "schedule_type": "STATIC", "schedule_name": "random_2", "is_biased_choice":false,"side_choice": "LEFT", "trial_number":2,"observed_reward":0,"unobserved_reward":0},{"RT":2740,"time": "2018-08-15 05:30:13pm", "schedule_type": "STATIC", "schedule_name": "random_2", "is_biased_choice":true,"side_choice": "RIGHT", "trial_number":3,"observed_reward":0,"unobserved_reward":0},{"RT":3914,"time": "2018-08-15 05:30:17pm", "schedule_type": "STATIC", "schedule_name": "random_2", "is_biased_choice":false,"side_choice": "LEFT", "trial_number":4,"observed_reward":1,"unobserved_reward":0},{"RT":3249,"time": "2018-08-15 05:30:20pm", "schedule_type": "STATIC", "schedule_name": "random_2", "is_biased_choice":true,"side_choice": "RIGHT", "trial_number":5,"observed_reward":0,"unobserved_reward":1},{"RT":2611,"time": "2018-08-15 05:30:23pm", "schedule_type": "STATIC", "schedule_name": "random_2", "is_biased_choice":false,"side_choice": "LEFT", "trial_number":6,"observed_reward":0,"unobserved_reward":0},{"RT":2635,"time": "2018-08-15 05:30:25pm", "schedule_type": "STATIC", "schedule_name": "random_2", "is_biased_choice":true,"side_choice": "RIGHT", "trial_number":7,"observed_reward":1,"unobserved_reward":1},{"RT":2631,"time": "2018-08-15 05:30:28pm", "schedule_type": "STATIC", "schedule_name": "random_2", "is_biased_choice":true,"side_choice": "RIGHT", "trial_number":8,"observed_reward":0,"unobserved_reward":0},{"RT":2464,"time": "2018-08-15 05:30:30pm", "schedule_type": "STATIC", "schedule_name": "random_2", "is_biased_choice":true,"side_choice": "RIGHT", "trial_number":9,"observed_reward":0,"unobserved_reward":1},{"RT":2554,"time": "2018-08-15 05:30:33pm", "schedule_type": "STATIC", "schedule_name": "random_2", "is_biased_choice":true,"side_choice": "RIGHT", "trial_number":10,"observed_reward":0,"unobserved_reward":0},{"RT":2573,"time": "2018-08-15 05:30:36pm", "schedule_type": "STATIC", "schedule_name": "random_2", "is_biased_choice":false,"side_choice": "LEFT", "trial_number":11,"observed_reward":0,"unobserved_reward":0},{"RT":2740,"time": "2018-08-15 05:30:38pm", "schedule_type": "STATIC", "schedule_name": "random_2", "is_biased_choice":true,"side_choice": "RIGHT", "trial_number":12,"observed_reward":0,"unobserved_reward":1},{"RT":2441,"time": "2018-08-15 05:30:41pm", "schedule_type": "STATIC", "schedule_name": "random_2", "is_biased_choice":false,"side_choice": "LEFT", "trial_number":13,"observed_reward":0,"unobserved_reward":0},{"RT":2611,"time": "2018-08-15 05:30:43pm", "schedule_type": "STATIC", "schedule_name": "random_2", "is_biased_choice":false,"side_choice": "LEFT", "trial_number":14,"observed_reward":0,"unobserved_reward":1},{"RT":2378,"time": "2018-08-15 05:30:46pm", "schedule_type": "STATIC", "schedule_name": "random_2", "is_biased_choice":true,"side_choice": "RIGHT", "trial_number":15,"observed_reward":0,"unobserved_reward":1},{"RT":2935,"time": "2018-08-15 05:30:49pm", "schedule_type": "STATIC", "schedule_name": "random_2", "is_biased_choice":true,"side_choice": "RIGHT", "trial_number":16,"observed_reward":0,"unobserved_reward":0},{"RT":2361,"time": "2018-08-15 05:30:51pm", "schedule_type": "STATIC", "schedule_name": "random_2", "is_biased_choice":true,"side_choice": "RIGHT", "trial_number":17,"observed_reward":0,"unobserved_reward":0},{"RT":3387,"time": "2018-08-15 05:30:54pm", "schedule_type": "STATIC", "schedule_name": "random_2", "is_biased_choice":false,"side_choice": "LEFT", "trial_number":18,"observed_reward":0,"unobserved_reward":1},{"RT":2433,"time": "2018-08-15 05:30:57pm", "schedule_type": "STATIC", "schedule_name": "random_2", "is_biased_choice":true,"side_choice": "RIGHT", "trial_number":19,"observed_reward":0,"unobserved_reward":1},{"RT":2410,"time": "2018-08-15 05:30:59pm", "schedule_type": "STATIC", "schedule_name": "random_2", "is_biased_choice":true,"side_choice": "RIGHT", "trial_number":20,"observed_reward":0,"unobserved_reward":0},{"RT":2443,"time": "2018-08-15 05:31:02pm", "schedule_type": "STATIC", "schedule_name": "random_2", "is_biased_choice":true,"side_choice": "RIGHT", "trial_number":21,"observed_reward":0,"unobserved_reward":0},{"RT":2595,"time": "2018-08-15 05:31:04pm", "schedule_type": "STATIC", "schedule_name": "random_2", "is_biased_choice":true,"side_choice": "RIGHT", "trial_number":22,"observed_reward":0,"unobserved_reward":1},{"RT":2401,"time": "2018-08-15 05:31:07pm", "schedule_type": "STATIC", "schedule_name": "random_2", "is_biased_choice":false,"side_choice": "LEFT", "trial_number":23,"observed_reward":0,"unobserved_reward":0},{"RT":2976,"time": "2018-08-15 05:31:10pm", "schedule_type": "STATIC", "schedule_name": "random_2", "is_biased_choice":false,"side_choice": "LEFT", "trial_number":24,"observed_reward":0,"unobserved_reward":0},{"RT":2385,"time": "2018-08-15 05:31:12pm", "schedule_type": "STATIC", "schedule_name": "random_2", "is_biased_choice":true,"side_choice": "RIGHT", "trial_number":25,"observed_reward":1,"unobserved_reward":1},{"RT":2425,"time": "2018-08-15 05:31:14pm", "schedule_type": "STATIC", "schedule_name": "random_2", "is_biased_choice":false,"side_choice": "LEFT", "trial_number":26,"observed_reward":0,"unobserved_reward":1},{"RT":2597,"time": "2018-08-15 05:31:17pm", "schedule_type": "STATIC", "schedule_name": "random_2", "is_biased_choice":false,"side_choice": "LEFT", "trial_number":27,"observed_reward":0,"unobserved_reward":0},{"RT":2974,"time": "2018-08-15 05:31:20pm", "schedule_type": "STATIC", "schedule_name": "random_2", "is_biased_choice":false,"side_choice": "LEFT", "trial_number":28,"observed_reward":0,"unobserved_reward":0},{"RT":3121,"time": "2018-08-15 05:31:23pm", "schedule_type": "STATIC", "schedule_name": "random_2", "is_biased_choice":false,"side_choice": "LEFT", "trial_number":29,"observed_reward":1,"unobserved_reward":0},{"RT":2756,"time": "2018-08-15 05:31:26pm", "schedule_type": "STATIC", "schedule_name": "random_2", "is_biased_choice":false,"side_choice": "LEFT", "trial_number":30,"observed_reward":0,"unobserved_reward":1},{"RT":2549,"time": "2018-08-15 05:31:28pm", "schedule_type": "STATIC", "schedule_name": "random_2", "is_biased_choice":true,"side_choice": "RIGHT", "trial_number":31,"observed_reward":1,"unobserved_reward":0},{"RT":2392,"time": "2018-08-15 05:31:31pm", "schedule_type": "STATIC", "schedule_name": "random_2", "is_biased_choice":true,"side_choice": "RIGHT", "trial_number":32,"observed_reward":0,"unobserved_reward":0},{"RT":2498,"time": "2018-08-15 05:31:33pm", "schedule_type": "STATIC", "schedule_name": "random_2", "is_biased_choice":false,"side_choice": "LEFT", "trial_number":33,"observed_reward":0,"unobserved_reward":0},{"RT":2281,"time": "2018-08-15 05:31:36pm", "schedule_type": "STATIC", "schedule_name": "random_2", "is_biased_choice":true,"side_choice": "RIGHT", "trial_number":34,"observed_reward":0,"unobserved_reward":1},{"RT":2869,"time": "2018-08-15 05:31:38pm", "schedule_type": "STATIC", "schedule_name": "random_2", "is_biased_choice":false,"side_choice": "LEFT", "trial_number":35,"observed_reward":0,"unobserved_reward":0},{"RT":3663,"time": "2018-08-15 05:31:42pm", "schedule_type": "STATIC", "schedule_name": "random_2", "is_biased_choice":false,"side_choice": "LEFT", "trial_number":36,"observed_reward":0,"unobserved_reward":0},{"RT":2416,"time": "2018-08-15 05:31:45pm", "schedule_type": "STATIC", "schedule_name": "random_2", "is_biased_choice":true,"side_choice": "RIGHT", "trial_number":37,"observed_reward":1,"unobserved_reward":0},{"RT":2371,"time": "2018-08-15 05:31:47pm", "schedule_type": "STATIC", "schedule_name": "random_2", "is_biased_choice":true,"side_choice": "RIGHT", "trial_number":38,"observed_reward":1,"unobserved_reward":1},{"RT":2399,"time": "2018-08-15 05:31:49pm", "schedule_type": "STATIC", "schedule_name": "random_2", "is_biased_choice":true,"side_choice": "RIGHT", "trial_number":39,"observed_reward":0,"unobserved_reward":0},{"RT":2403,"time": "2018-08-15 05:31:52pm", "schedule_type": "STATIC", "schedule_name": "random_2", "is_biased_choice":true,"side_choice": "RIGHT", "trial_number":40,"observed_reward":1,"unobserved_reward":0},{"RT":3397,"time": "2018-08-15 05:31:55pm", "schedule_type": "STATIC", "schedule_name": "random_2", "is_biased_choice":true,"side_choice": "RIGHT", "trial_number":41,"observed_reward":0,"unobserved_reward":0},{"RT":2417,"time": "2018-08-15 05:31:58pm", "schedule_type": "STATIC", "schedule_name": "random_2", "is_biased_choice":true,"side_choice": "RIGHT", "trial_number":42,"observed_reward":0,"unobserved_reward":0},{"RT":2369,"time": "2018-08-15 05:32:00pm", "schedule_type": "STATIC", "schedule_name": "random_2", "is_biased_choice":false,"side_choice": "LEFT", "trial_number":43,"observed_reward":0,"unobserved_reward":0},{"RT":2425,"time": "2018-08-15 05:32:02pm", "schedule_type": "STATIC", "schedule_name": "random_2", "is_biased_choice":true,"side_choice": "RIGHT", "trial_number":44,"observed_reward":0,"unobserved_reward":0},{"RT":2434,"time": "2018-08-15 05:32:05pm", "schedule_type": "STATIC", "schedule_name": "random_2", "is_biased_choice":true,"side_choice": "RIGHT", "trial_number":45,"observed_reward":0,"unobserved_reward":0},{"RT":2409,"time": "2018-08-15 05:32:07pm", "schedule_type": "STATIC", "schedule_name": "random_2", "is_biased_choice":false,"side_choice": "LEFT", "trial_number":46,"observed_reward":0,"unobserved_reward":1},{"RT":2273,"time": "2018-08-15 05:32:09pm", "schedule_type": "STATIC", "schedule_name": "random_2", "is_biased_choice":true,"side_choice": "RIGHT", "trial_number":47,"observed_reward":1,"unobserved_reward":0},{"RT":2851,"time": "2018-08-15 05:32:12pm", "schedule_type": "STATIC", "schedule_name": "random_2", "is_biased_choice":true,"side_choice": "RIGHT", "trial_number":48,"observed_reward":0,"unobserved_reward":0},{"RT":3680,"time": "2018-08-15 05:32:16pm", "schedule_type": "STATIC", "schedule_name": "random_2", "is_biased_choice":true,"side_choice": "RIGHT", "trial_number":49,"observed_reward":0,"unobserved_reward":0},{"RT":2627,"time": "2018-08-15 05:32:19pm", "schedule_type": "STATIC", "schedule_name": "random_2", "is_biased_choice":true,"side_choice": "RIGHT", "trial_number":50,"observed_reward":0,"unobserved_reward":0},{"RT":2500,"time": "2018-08-15 05:32:21pm", "schedule_type": "STATIC", "schedule_name": "random_2", "is_biased_choice":false,"side_choice": "LEFT", "trial_number":51,"observed_reward":0,"unobserved_reward":0},{"RT":2294,"time": "2018-08-15 05:32:23pm", "schedule_type": "STATIC", "schedule_name": "random_2", "is_biased_choice":true,"side_choice": "RIGHT", "trial_number":52,"observed_reward":0,"unobserved_reward":1},{"RT":2571,"time": "2018-08-15 05:32:26pm", "schedule_type": "STATIC", "schedule_name": "random_2", "is_biased_choice":true,"side_choice": "RIGHT", "trial_number":53,"observed_reward":0,"unobserved_reward":0},{"RT":3743,"time": "2018-08-15 05:32:30pm", "schedule_type": "STATIC", "schedule_name": "random_2", "is_biased_choice":true,"side_choice": "RIGHT", "trial_number":54,"observed_reward":1,"unobserved_reward":1},{"RT":2984,"time": "2018-08-15 05:32:33pm", "schedule_type": "STATIC", "schedule_name": "random_2", "is_biased_choice":true,"side_choice": "RIGHT", "trial_number":55,"observed_reward":1,"unobserved_reward":0},{"RT":2384,"time": "2018-08-15 05:32:35pm", "schedule_type": "STATIC", "schedule_name": "random_2", "is_biased_choice":true,"side_choice": "RIGHT", "trial_number":56,"observed_reward":0,"unobserved_reward":0},{"RT":2450,"time": "2018-08-15 05:32:38pm", "schedule_type": "STATIC", "schedule_name": "random_2", "is_biased_choice":false,"side_choice": "LEFT", "trial_number":57,"observed_reward":1,"unobserved_reward":1},{"RT":2879,"time": "2018-08-15 05:32:40pm", "schedule_type": "STATIC", "schedule_name": "random_2", "is_biased_choice":true,"side_choice": "RIGHT", "trial_number":58,"observed_reward":0,"unobserved_reward":0},{"RT":2417,"time": "2018-08-15 05:32:43pm", "schedule_type": "STATIC", "schedule_name": "random_2", "is_biased_choice":false,"side_choice": "LEFT", "trial_number":59,"observed_reward":0,"unobserved_reward":0},{"RT":2466,"time": "2018-08-15 05:32:45pm", "schedule_type": "STATIC", "schedule_name": "random_2", "is_biased_choice":false,"side_choice": "LEFT", "trial_number":60,"observed_reward":0,"unobserved_reward":1},{"RT":2950,"time": "2018-08-15 05:32:48pm", "schedule_type": "STATIC", "schedule_name": "random_2", "is_biased_choice":true,"side_choice": "RIGHT", "trial_number":61,"observed_reward":0,"unobserved_reward":0},{"RT":2507,"time": "2018-08-15 05:32:51pm", "schedule_type": "STATIC", "schedule_name": "random_2", "is_biased_choice":true,"side_choice": "RIGHT", "trial_number":62,"observed_reward":0,"unobserved_reward":0},{"RT":2424,"time": "2018-08-15 05:32:53pm", "schedule_type": "STATIC", "schedule_name": "random_2", "is_biased_choice":true,"side_choice": "RIGHT", "trial_number":63,"observed_reward":0,"unobserved_reward":0},{"RT":2524,"time": "2018-08-15 05:32:56pm", "schedule_type": "STATIC", "schedule_name": "random_2", "is_biased_choice":true,"side_choice": "RIGHT", "trial_number":64,"observed_reward":0,"unobserved_reward":0},{"RT":2789,"time": "2018-08-15 05:32:59pm", "schedule_type": "STATIC", "schedule_name": "random_2", "is_biased_choice":true,"side_choice": "RIGHT", "trial_number":65,"observed_reward":0,"unobserved_reward":0},{"RT":2369,"time": "2018-08-15 05:33:01pm", "schedule_type": "STATIC", "schedule_name": "random_2", "is_biased_choice":false,"side_choice": "LEFT", "trial_number":66,"observed_reward":0,"unobserved_reward":0},{"RT":2611,"time": "2018-08-15 05:33:03pm", "schedule_type": "STATIC", "schedule_name": "random_2", "is_biased_choice":true,"side_choice": "RIGHT", "trial_number":67,"observed_reward":0,"unobserved_reward":0},{"RT":2668,"time": "2018-08-15 05:33:06pm", "schedule_type": "STATIC", "schedule_name": "random_2", "is_biased_choice":true,"side_choice": "RIGHT", "trial_number":68,"observed_reward":0,"unobserved_reward":0},{"RT":2360,"time": "2018-08-15 05:33:09pm", "schedule_type": "STATIC", "schedule_name": "random_2", "is_biased_choice":true,"side_choice": "RIGHT", "trial_number":69,"observed_reward":1,"unobserved_reward":0},{"RT":2410,"time": "2018-08-15 05:33:11pm", "schedule_type": "STATIC", "schedule_name": "random_2", "is_biased_choice":true,"side_choice": "RIGHT", "trial_number":70,"observed_reward":0,"unobserved_reward":1},{"RT":4300,"time": "2018-08-15 05:33:15pm", "schedule_type": "STATIC", "schedule_name": "random_2", "is_biased_choice":true,"side_choice": "RIGHT", "trial_number":71,"observed_reward":1,"unobserved_reward":0},{"RT":2532,"time": "2018-08-15 05:33:18pm", "schedule_type": "STATIC", "schedule_name": "random_2", "is_biased_choice":true,"side_choice": "RIGHT", "trial_number":72,"observed_reward":0,"unobserved_reward":0},{"RT":2498,"time": "2018-08-15 05:33:20pm", "schedule_type": "STATIC", "schedule_name": "random_2", "is_biased_choice":true,"side_choice": "RIGHT", "trial_number":73,"observed_reward":0,"unobserved_reward":0},{"RT":2620,"time": "2018-08-15 05:33:23pm", "schedule_type": "STATIC", "schedule_name": "random_2", "is_biased_choice":true,"side_choice": "RIGHT", "trial_number":74,"observed_reward":0,"unobserved_reward":1},{"RT":2434,"time": "2018-08-15 05:33:25pm", "schedule_type": "STATIC", "schedule_name": "random_2", "is_biased_choice":true,"side_choice": "RIGHT", "trial_number":75,"observed_reward":0,"unobserved_reward":0},{"RT":2548,"time": "2018-08-15 05:33:28pm", "schedule_type": "STATIC", "schedule_name": "random_2", "is_biased_choice":true,"side_choice": "RIGHT", "trial_number":76,"observed_reward":0,"unobserved_reward":0},{"RT":2561,"time": "2018-08-15 05:33:30pm", "schedule_type": "STATIC", "schedule_name": "random_2", "is_biased_choice":false,"side_choice": "LEFT", "trial_number":77,"observed_reward":0,"unobserved_reward":0},{"RT":2580,"time": "2018-08-15 05:33:33pm", "schedule_type": "STATIC", "schedule_name": "random_2", "is_biased_choice":true,"side_choice": "RIGHT", "trial_number":78,"observed_reward":1,"unobserved_reward":0},{"RT":2530,"time": "2018-08-15 05:33:36pm", "schedule_type": "STATIC", "schedule_name": "random_2", "is_biased_choice":true,"side_choice": "RIGHT", "trial_number":79,"observed_reward":0,"unobserved_reward":1},{"RT":3025,"time": "2018-08-15 05:33:39pm", "schedule_type": "STATIC", "schedule_name": "random_2", "is_biased_choice":true,"side_choice": "RIGHT", "trial_number":80,"observed_reward":0,"unobserved_reward":0},{"RT":2514,"time": "2018-08-15 05:33:41pm", "schedule_type": "STATIC", "schedule_name": "random_2", "is_biased_choice":false,"side_choice": "LEFT", "trial_number":81,"observed_reward":1,"unobserved_reward":1},{"RT":2515,"time": "2018-08-15 05:33:44pm", "schedule_type": "STATIC", "schedule_name": "random_2", "is_biased_choice":false,"side_choice": "LEFT", "trial_number":82,"observed_reward":0,"unobserved_reward":0},{"RT":2572,"time": "2018-08-15 05:33:46pm", "schedule_type": "STATIC", "schedule_name": "random_2", "is_biased_choice":true,"side_choice": "RIGHT", "trial_number":83,"observed_reward":1,"unobserved_reward":0},{"RT":2435,"time": "2018-08-15 05:33:49pm", "schedule_type": "STATIC", "schedule_name": "random_2", "is_biased_choice":true,"side_choice": "RIGHT", "trial_number":84,"observed_reward":0,"unobserved_reward":1},{"RT":2488,"time": "2018-08-15 05:33:51pm", "schedule_type": "STATIC", "schedule_name": "random_2", "is_biased_choice":true,"side_choice": "RIGHT", "trial_number":85,"observed_reward":1,"unobserved_reward":0},{"RT":2434,"time": "2018-08-15 05:33:54pm", "schedule_type": "STATIC", "schedule_name": "random_2", "is_biased_choice":true,"side_choice": "RIGHT", "trial_number":86,"observed_reward":0,"unobserved_reward":0},{"RT":2425,"time": "2018-08-15 05:33:56pm", "schedule_type": "STATIC", "schedule_name": "random_2", "is_biased_choice":false,"side_choice": "LEFT", "trial_number":87,"observed_reward":0,"unobserved_reward":0},{"RT":2460,"time": "2018-08-15 05:33:58pm", "schedule_type": "STATIC", "schedule_name": "random_2", "is_biased_choice":true,"side_choice": "RIGHT", "trial_number":88,"observed_reward":0,"unobserved_reward":0},{"RT":2424,"time": "2018-08-15 05:34:01pm", "schedule_type": "STATIC", "schedule_name": "random_2", "is_biased_choice":true,"side_choice": "RIGHT", "trial_number":89,"observed_reward":0,"unobserved_reward":0},{"RT":2505,"time": "2018-08-15 05:34:04pm", "schedule_type": "STATIC", "schedule_name": "random_2", "is_biased_choice":false,"side_choice": "LEFT", "trial_number":90,"observed_reward":0,"unobserved_reward":0},{"RT":2954,"time": "2018-08-15 05:34:06pm", "schedule_type": "STATIC", "schedule_name": "random_2", "is_biased_choice":true,"side_choice": "RIGHT", "trial_number":91,"observed_reward":0,"unobserved_reward":1},{"RT":2617,"time": "2018-08-15 05:34:09pm", "schedule_type": "STATIC", "schedule_name": "random_2", "is_biased_choice":true,"side_choice": "RIGHT", "trial_number":92,"observed_reward":0,"unobserved_reward":0},{"RT":2386,"time": "2018-08-15 05:34:11pm", "schedule_type": "STATIC", "schedule_name": "random_2", "is_biased_choice":true,"side_choice": "RIGHT", "trial_number":93,"observed_reward":0,"unobserved_reward":1},{"RT":2871,"time": "2018-08-15 05:34:14pm", "schedule_type": "STATIC", "schedule_name": "random_2", "is_biased_choice":false,"side_choice": "LEFT", "trial_number":94,"observed_reward":1,"unobserved_reward":0},{"RT":2999,"time": "2018-08-15 05:34:17pm", "schedule_type": "STATIC", "schedule_name": "random_2", "is_biased_choice":false,"side_choice": "LEFT", "trial_number":95,"observed_reward":0,"unobserved_reward":1},{"RT":2328,"time": "2018-08-15 05:34:19pm", "schedule_type": "STATIC", "schedule_name": "random_2", "is_biased_choice":true,"side_choice": "RIGHT", "trial_number":96,"observed_reward":0,"unobserved_reward":0},{"RT":2394,"time": "2018-08-15 05:34:22pm", "schedule_type": "STATIC", "schedule_name": "random_2", "is_biased_choice":true,"side_choice": "RIGHT", "trial_number":97,"observed_reward":0,"unobserved_reward":0},{"RT":3275,"time": "2018-08-15 05:34:25pm", "schedule_type": "STATIC", "schedule_name": "random_2", "is_biased_choice":true,"side_choice": "RIGHT", "trial_number":98,"observed_reward":1,"unobserved_reward":0},{"RT":2798,"time": "2018-08-15 05:34:28pm", "schedule_type": "STATIC", "schedule_name": "random_2", "is_biased_choice":true,"side_choice": "RIGHT", "trial_number":99,"observed_reward":0,"unobserved_reward":1},