[{"RT":2828,"time": "2018-08-15 05:52:16pm", "schedule_type": "STATIC", "schedule_name": "random_2", "is_biased_choice":false,"side_choice": "LEFT", "trial_number":0,"observed_reward":1,"unobserved_reward":0},{"RT":4409,"time": "2018-08-15 05:52:21pm", "schedule_type": "STATIC", "schedule_name": "random_2", "is_biased_choice":true,"side_choice": "RIGHT", "trial_number":1,"observed_reward":1,"unobserved_reward":0},{"RT":4894,"time": "2018-08-15 05:52:26pm", "schedule_type": "STATIC", "schedule_name": "random_2", "is_biased_choice":false,"side_choice": "LEFT", "trial_number":2,"observed_reward":0,"unobserved_reward":0},{"RT":3419,"time": "2018-08-15 05:52:29pm", "schedule_type": "STATIC", "schedule_name": "random_2", "is_biased_choice":true,"side_choice": "RIGHT", "trial_number":3,"observed_reward":0,"unobserved_reward":0},{"RT":3244,"time": "2018-08-15 05:52:33pm", "schedule_type": "STATIC", "schedule_name": "random_2", "is_biased_choice":true,"side_choice": "RIGHT", "trial_number":4,"observed_reward":0,"unobserved_reward":1},{"RT":2856,"time": "2018-08-15 05:52:35pm", "schedule_type": "STATIC", "schedule_name": "random_2", "is_biased_choice":false,"side_choice": "LEFT", "trial_number":5,"observed_reward":1,"unobserved_reward":0},{"RT":2918,"time": "2018-08-15 05:52:39pm", "schedule_type": "STATIC", "schedule_name": "random_2", "is_biased_choice":false,"side_choice": "LEFT", "trial_number":6,"observed_reward":0,"unobserved_reward":0},{"RT":2905,"time": "2018-08-15 05:52:41pm", "schedule_type": "STATIC", "schedule_name": "random_2", "is_biased_choice":false,"side_choice": "LEFT", "trial_number":7,"observed_reward":1,"unobserved_reward":1},{"RT":3104,"time": "2018-08-15 05:52:44pm", "schedule_type": "STATIC", "schedule_name": "random_2", "is_biased_choice":false,"side_choice": "LEFT", "trial_number":8,"observed_reward":0,"unobserved_reward":0},{"RT":2938,"time": "2018-08-15 05:52:47pm", "schedule_type": "STATIC", "schedule_name": "random_2", "is_biased_choice":true,"side_choice": "RIGHT", "trial_number":9,"observed_reward":0,"unobserved_reward":1},{"RT":3712,"time": "2018-08-15 05:52:51pm", "schedule_type": "STATIC", "schedule_name": "random_2", "is_biased_choice":false,"side_choice": "LEFT", "trial_number":10,"observed_reward":0,"unobserved_reward":0},{"RT":4846,"time": "2018-08-15 05:52:56pm", "schedule_type": "STATIC", "schedule_name": "random_2", "is_biased_choice":true,"side_choice": "RIGHT", "trial_number":11,"observed_reward":0,"unobserved_reward":0},{"RT":2710,"time": "2018-08-15 05:52:59pm", "schedule_type": "STATIC", "schedule_name": "random_2", "is_biased_choice":false,"side_choice": "LEFT", "trial_number":12,"observed_reward":1,"unobserved_reward":0},{"RT":2846,"time": "2018-08-15 05:53:02pm", "schedule_type": "STATIC", "schedule_name": "random_2", "is_biased_choice":false,"side_choice": "LEFT", "trial_number":13,"observed_reward":0,"unobserved_reward":0},{"RT":2893,"time": "2018-08-15 05:53:05pm", "schedule_type": "STATIC", "schedule_name": "random_2", "is_biased_choice":false,"side_choice": "LEFT", "trial_number":14,"observed_reward":0,"unobserved_reward":1},{"RT":3773,"time": "2018-08-15 05:53:08pm", "schedule_type": "STATIC", "schedule_name": "random_2", "is_biased_choice":true,"side_choice": "RIGHT", "trial_number":15,"observed_reward":0,"unobserved_reward":1},{"RT":2636,"time": "2018-08-15 05:53:11pm", "schedule_type": "STATIC", "schedule_name": "random_2", "is_biased_choice":true,"side_choice": "RIGHT", "trial_number":16,"observed_reward":0,"unobserved_reward":0},{"RT":2893,"time": "2018-08-15 05:53:14pm", "schedule_type": "STATIC", "schedule_name": "random_2", "is_biased_choice":true,"side_choice": "RIGHT", "trial_number":17,"observed_reward":0,"unobserved_reward":0},{"RT":2527,"time": "2018-08-15 05:53:16pm", "schedule_type": "STATIC", "schedule_name": "random_2", "is_biased_choice":false,"side_choice": "LEFT", "trial_number":18,"observed_reward":0,"unobserved_reward":1},{"RT":3516,"time": "2018-08-15 05:53:20pm", "schedule_type": "STATIC", "schedule_name": "random_2", "is_biased_choice":false,"side_choice": "LEFT", "trial_number":19,"observed_reward":1,"unobserved_reward":0},{"RT":2685,"time": "2018-08-15 05:53:23pm", "schedule_type": "STATIC", "schedule_name": "random_2", "is_biased_choice":true,"side_choice": "RIGHT", "trial_number":20,"observed_reward":0,"unobserved_reward":0},{"RT":3992,"time": "2018-08-15 05:53:26pm", "schedule_type": "STATIC", "schedule_name": "random_2", "is_biased_choice":true,"side_choice": "RIGHT", "trial_number":21,"observed_reward":0,"unobserved_reward":0},{"RT":3844,"time": "2018-08-15 05:53:30pm", "schedule_type": "STATIC", "schedule_name": "random_2", "is_biased_choice":false,"side_choice": "LEFT", "trial_number":22,"observed_reward":1,"unobserved_reward":0},{"RT":3077,"time": "2018-08-15 05:53:33pm", "schedule_type": "STATIC", "schedule_name": "random_2", "is_biased_choice":false,"side_choice": "LEFT", "trial_number":23,"observed_reward":0,"unobserved_reward":0},{"RT":2796,"time": "2018-08-15 05:53:36pm", "schedule_type": "STATIC", "schedule_name": "random_2", "is_biased_choice":false,"side_choice": "LEFT", "trial_number":24,"observed_reward":0,"unobserved_reward":0},{"RT":4284,"time": "2018-08-15 05:53:41pm", "schedule_type": "STATIC", "schedule_name": "random_2", "is_biased_choice":false,"side_choice": "LEFT", "trial_number":25,"observed_reward":1,"unobserved_reward":1},{"RT":3100,"time": "2018-08-15 05:53:44pm", "schedule_type": "STATIC", "schedule_name": "random_2", "is_biased_choice":false,"side_choice": "LEFT", "trial_number":26,"observed_reward":0,"unobserved_reward":1},{"RT":2796,"time": "2018-08-15 05:53:46pm", "schedule_type": "STATIC", "schedule_name": "random_2", "is_biased_choice":false,"side_choice": "LEFT", "trial_number":27,"observed_reward":0,"unobserved_reward":0},{"RT":4321,"time": "2018-08-15 05:53:51pm", "schedule_type": "STATIC", "schedule_name": "random_2", "is_biased_choice":false,"side_choice": "LEFT", "trial_number":28,"observed_reward":0,"unobserved_reward":0},{"RT":3112,"time": "2018-08-15 05:53:54pm", "schedule_type": "STATIC", "schedule_name": "random_2", "is_biased_choice":false,"side_choice": "LEFT", "trial_number":29,"observed_reward":1,"unobserved_reward":0},{"RT":2967,"time": "2018-08-15 05:53:57pm", "schedule_type": "STATIC", "schedule_name": "random_2", "is_biased_choice":true,"side_choice": "RIGHT", "trial_number":30,"observed_reward":1,"unobserved_reward":0},{"RT":2906,"time": "2018-08-15 05:53:59pm", "schedule_type": "STATIC", "schedule_name": "random_2", "is_biased_choice":false,"side_choice": "LEFT", "trial_number":31,"observed_reward":0,"unobserved_reward":1},{"RT":2918,"time": "2018-08-15 05:54:03pm", "schedule_type": "STATIC", "schedule_name": "random_2", "is_biased_choice":false,"side_choice": "LEFT", "trial_number":32,"observed_reward":0,"unobserved_reward":0},{"RT":36626,"time": "2018-08-15 05:54:39pm", "schedule_type": "STATIC", "schedule_name": "random_2", "is_biased_choice":true,"side_choice": "RIGHT", "trial_number":33,"observed_reward":0,"unobserved_reward":0},{"RT":2514,"time": "2018-08-15 05:54:42pm", "schedule_type": "STATIC", "schedule_name": "random_2", "is_biased_choice":false,"side_choice": "LEFT", "trial_number":34,"observed_reward":1,"unobserved_reward":0},{"RT":3064,"time": "2018-08-15 05:54:45pm", "schedule_type": "STATIC", "schedule_name": "random_2", "is_biased_choice":false,"side_choice": "LEFT", "trial_number":35,"observed_reward":0,"unobserved_reward":0},{"RT":2992,"time": "2018-08-15 05:54:48pm", "schedule_type": "STATIC", "schedule_name": "random_2", "is_biased_choice":false,"side_choice": "LEFT", "trial_number":36,"observed_reward":0,"unobserved_reward":0},{"RT":2587,"time": "2018-08-15 05:54:50pm", "schedule_type": "STATIC", "schedule_name": "random_2", "is_biased_choice":false,"side_choice": "LEFT", "trial_number":37,"observed_reward":0,"unobserved_reward":1},{"RT":4296,"time": "2018-08-15 05:54:54pm", "schedule_type": "STATIC", "schedule_name": "random_2", "is_biased_choice":false,"side_choice": "LEFT", "trial_number":38,"observed_reward":1,"unobserved_reward":1},{"RT":2601,"time": "2018-08-15 05:54:57pm", "schedule_type": "STATIC", "schedule_name": "random_2", "is_biased_choice":false,"side_choice": "LEFT", "trial_number":39,"observed_reward":0,"unobserved_reward":0},{"RT":2784,"time": "2018-08-15 05:55:00pm", "schedule_type": "STATIC", "schedule_name": "random_2", "is_biased_choice":false,"side_choice": "LEFT", "trial_number":40,"observed_reward":0,"unobserved_reward":1},{"RT":2785,"time": "2018-08-15 05:55:03pm", "schedule_type": "STATIC", "schedule_name": "random_2", "is_biased_choice":false,"side_choice": "LEFT", "trial_number":41,"observed_reward":0,"unobserved_reward":0},{"RT":2721,"time": "2018-08-15 05:55:05pm", "schedule_type": "STATIC", "schedule_name": "random_2", "is_biased_choice":false,"side_choice": "LEFT", "trial_number":42,"observed_reward":0,"unobserved_reward":0},{"RT":3980,"time": "2018-08-15 05:55:10pm", "schedule_type": "STATIC", "schedule_name": "random_2", "is_biased_choice":false,"side_choice": "LEFT", "trial_number":43,"observed_reward":0,"unobserved_reward":0},{"RT":3797,"time": "2018-08-15 05:55:13pm", "schedule_type": "STATIC", "schedule_name": "random_2", "is_biased_choice":false,"side_choice": "LEFT", "trial_number":44,"observed_reward":0,"unobserved_reward":0},{"RT":4126,"time": "2018-08-15 05:55:17pm", "schedule_type": "STATIC", "schedule_name": "random_2", "is_biased_choice":false,"side_choice": "LEFT", "trial_number":45,"observed_reward":0,"unobserved_reward":0},{"RT":3664,"time": "2018-08-15 05:55:21pm", "schedule_type": "STATIC", "schedule_name": "random_2", "is_biased_choice":false,"side_choice": "LEFT", "trial_number":46,"observed_reward":0,"unobserved_reward":1},{"RT":2634,"time": "2018-08-15 05:55:24pm", "schedule_type": "STATIC", "schedule_name": "random_2", "is_biased_choice":false,"side_choice": "LEFT", "trial_number":47,"observed_reward":0,"unobserved_reward":1},{"RT":2600,"time": "2018-08-15 05:55:26pm", "schedule_type": "STATIC", "schedule_name": "random_2", "is_biased_choice":false,"side_choice": "LEFT", "trial_number":48,"observed_reward":0,"unobserved_reward":0},{"RT":3345,"time": "2018-08-15 05:55:30pm", "schedule_type": "STATIC", "schedule_name": "random_2", "is_biased_choice":true,"side_choice": "RIGHT", "trial_number":49,"observed_reward":0,"unobserved_reward":0},{"RT":2992,"time": "2018-08-15 05:55:33pm", "schedule_type": "STATIC", "schedule_name": "random_2", "is_biased_choice":true,"side_choice": "RIGHT", "trial_number":50,"observed_reward":0,"unobserved_reward":0},{"RT":2623,"time": "2018-08-15 05:55:35pm", "schedule_type": "STATIC", "schedule_name": "random_2", "is_biased_choice":false,"side_choice": "LEFT", "trial_number":51,"observed_reward":0,"unobserved_reward":0},{"RT":2625,"time": "2018-08-15 05:55:38pm", "schedule_type": "STATIC", "schedule_name": "random_2", "is_biased_choice":false,"side_choice": "LEFT", "trial_number":52,"observed_reward":1,"unobserved_reward":0},{"RT":3040,"time": "2018-08-15 05:55:41pm", "schedule_type": "STATIC", "schedule_name": "random_2", "is_biased_choice":false,"side_choice": "LEFT", "trial_number":53,"observed_reward":0,"unobserved_reward":0},{"RT":4223,"time": "2018-08-15 05:55:45pm", "schedule_type": "STATIC", "schedule_name": "random_2", "is_biased_choice":false,"side_choice": "LEFT", "trial_number":54,"observed_reward":1,"unobserved_reward":1},{"RT":4211,"time": "2018-08-15 05:55:49pm", "schedule_type": "STATIC", "schedule_name": "random_2", "is_biased_choice":false,"side_choice": "LEFT", "trial_number":55,"observed_reward":0,"unobserved_reward":1},{"RT":3748,"time": "2018-08-15 05:55:53pm", "schedule_type": "STATIC", "schedule_name": "random_2", "is_biased_choice":false,"side_choice": "LEFT", "trial_number":56,"observed_reward":0,"unobserved_reward":0},{"RT":3197,"time": "2018-08-15 05:55:56pm", "schedule_type": "STATIC", "schedule_name": "random_2", "is_biased_choice":false,"side_choice": "LEFT", "trial_number":57,"observed_reward":1,"unobserved_reward":1},{"RT":5301,"time": "2018-08-15 05:56:02pm", "schedule_type": "STATIC", "schedule_name": "random_2", "is_biased_choice":false,"side_choice": "LEFT", "trial_number":58,"observed_reward":0,"unobserved_reward":0},{"RT":2649,"time": "2018-08-15 05:56:04pm", "schedule_type": "STATIC", "schedule_name": "random_2", "is_biased_choice":false,"side_choice": "LEFT", "trial_number":59,"observed_reward":0,"unobserved_reward":0},{"RT":4308,"time": "2018-08-15 05:56:09pm", "schedule_type": "STATIC", "schedule_name": "random_2", "is_biased_choice":false,"side_choice": "LEFT", "trial_number":60,"observed_reward":0,"unobserved_reward":1},{"RT":3675,"time": "2018-08-15 05:56:12pm", "schedule_type": "STATIC", "schedule_name": "random_2", "is_biased_choice":false,"side_choice": "LEFT", "trial_number":61,"observed_reward":0,"unobserved_reward":0},{"RT":10754,"time": "2018-08-15 05:56:23pm", "schedule_type": "STATIC", "schedule_name": "random_2", "is_biased_choice":false,"side_choice": "LEFT", "trial_number":62,"observed_reward":0,"unobserved_reward":0},{"RT":2746,"time": "2018-08-15 05:56:26pm", "schedule_type": "STATIC", "schedule_name": "random_2", "is_biased_choice":false,"side_choice": "LEFT", "trial_number":63,"observed_reward":0,"unobserved_reward":0},{"RT":2721,"time": "2018-08-15 05:56:29pm", "schedule_type": "STATIC", "schedule_name": "random_2", "is_biased_choice":false,"side_choice": "LEFT", "trial_number":64,"observed_reward":0,"unobserved_reward":0},{"RT":2796,"time": "2018-08-15 05:56:31pm", "schedule_type": "STATIC", "schedule_name": "random_2", "is_biased_choice":false,"side_choice": "LEFT", "trial_number":65,"observed_reward":0,"unobserved_reward":0},{"RT":2489,"time": "2018-08-15 05:56:34pm", "schedule_type": "STATIC", "schedule_name": "random_2", "is_biased_choice":false,"side_choice": "LEFT", "trial_number":66,"observed_reward":0,"unobserved_reward":0},{"RT":3186,"time": "2018-08-15 05:56:37pm", "schedule_type": "STATIC", "schedule_name": "random_2", "is_biased_choice":true,"side_choice": "RIGHT", "trial_number":67,"observed_reward":0,"unobserved_reward":0},{"RT":2772,"time": "2018-08-15 05:56:40pm", "schedule_type": "STATIC", "schedule_name": "random_2", "is_biased_choice":false,"side_choice": "LEFT", "trial_number":68,"observed_reward":0,"unobserved_reward":0},{"RT":2929,"time": "2018-08-15 05:56:43pm", "schedule_type": "STATIC", "schedule_name": "random_2", "is_biased_choice":true,"side_choice": "RIGHT", "trial_number":69,"observed_reward":1,"unobserved_reward":0},{"RT":3564,"time": "2018-08-15 05:56:46pm", "schedule_type": "STATIC", "schedule_name": "random_2", "is_biased_choice":true,"side_choice": "RIGHT", "trial_number":70,"observed_reward":0,"unobserved_reward":1},{"RT":2905,"time": "2018-08-15 05:56:49pm", "schedule_type": "STATIC", "schedule_name": "random_2", "is_biased_choice":true,"side_choice": "RIGHT", "trial_number":71,"observed_reward":1,"unobserved_reward":0},{"RT":3345,"time": "2018-08-15 05:56:53pm", "schedule_type": "STATIC", "schedule_name": "random_2", "is_biased_choice":true,"side_choice": "RIGHT", "trial_number":72,"observed_reward":0,"unobserved_reward":0},{"RT":3052,"time": "2018-08-15 05:56:55pm", "schedule_type": "STATIC", "schedule_name": "random_2", "is_biased_choice":true,"side_choice": "RIGHT", "trial_number":73,"observed_reward":0,"unobserved_reward":0},{"RT":2892,"time": "2018-08-15 05:56:59pm", "schedule_type": "STATIC", "schedule_name": "random_2", "is_biased_choice":false,"side_choice": "LEFT", "trial_number":74,"observed_reward":1,"unobserved_reward":0},{"RT":2859,"time": "2018-08-15 05:57:01pm", "schedule_type": "STATIC", "schedule_name": "random_2", "is_biased_choice":true,"side_choice": "RIGHT", "trial_number":75,"observed_reward":0,"unobserved_reward":0},{"RT":2844,"time": "2018-08-15 05:57:04pm", "schedule_type": "STATIC", "schedule_name": "random_2", "is_biased_choice":false,"side_choice": "LEFT", "trial_number":76,"observed_reward":0,"unobserved_reward":0},{"RT":4223,"time": "2018-08-15 05:57:08pm", "schedule_type": "STATIC", "schedule_name": "random_2", "is_biased_choice":false,"side_choice": "LEFT", "trial_number":77,"observed_reward":0,"unobserved_reward":0},{"RT":3897,"time": "2018-08-15 05:57:12pm", "schedule_type": "STATIC", "schedule_name": "random_2", "is_biased_choice":true,"side_choice": "RIGHT", "trial_number":78,"observed_reward":1,"unobserved_reward":0},{"RT":2865,"time": "2018-08-15 05:57:15pm", "schedule_type": "STATIC", "schedule_name": "random_2", "is_biased_choice":false,"side_choice": "LEFT", "trial_number":79,"observed_reward":1,"unobserved_reward":0},{"RT":2857,"time": "2018-08-15 05:57:18pm", "schedule_type": "STATIC", "schedule_name": "random_2", "is_biased_choice":true,"side_choice": "RIGHT", "trial_number":80,"observed_reward":0,"unobserved_reward":0},{"RT":2636,"time": "2018-08-15 05:57:21pm", "schedule_type": "STATIC", "schedule_name": "random_2", "is_biased_choice":false,"side_choice": "LEFT", "trial_number":81,"observed_reward":1,"unobserved_reward":1},{"RT":2662,"time": "2018-08-15 05:57:23pm", "schedule_type": "STATIC", "schedule_name": "random_2", "is_biased_choice":true,"side_choice": "RIGHT", "trial_number":82,"observed_reward":0,"unobserved_reward":0},{"RT":2611,"time": "2018-08-15 05:57:26pm", "schedule_type": "STATIC", "schedule_name": "random_2", "is_biased_choice":false,"side_choice": "LEFT", "trial_number":83,"observed_reward":0,"unobserved_reward":1},{"RT":2551,"time": "2018-08-15 05:57:29pm", "schedule_type": "STATIC", "schedule_name": "random_2", "is_biased_choice":true,"side_choice": "RIGHT", "trial_number":84,"observed_reward":0,"unobserved_reward":1},{"RT":5845,"time": "2018-08-15 05:57:34pm", "schedule_type": "STATIC", "schedule_name": "random_2", "is_biased_choice":false,"side_choice": "LEFT", "trial_number":85,"observed_reward":0,"unobserved_reward":1},{"RT":3419,"time": "2018-08-15 05:57:38pm", "schedule_type": "STATIC", "schedule_name": "random_2", "is_biased_choice":true,"side_choice": "RIGHT", "trial_number":86,"observed_reward":0,"unobserved_reward":0},{"RT":2673,"time": "2018-08-15 05:57:40pm", "schedule_type": "STATIC", "schedule_name": "random_2", "is_biased_choice":false,"side_choice": "LEFT", "trial_number":87,"observed_reward":0,"unobserved_reward":0},{"RT":2795,"time": "2018-08-15 05:57:43pm", "schedule_type": "STATIC", "schedule_name": "random_2", "is_biased_choice":true,"side_choice": "RIGHT", "trial_number":88,"observed_reward":0,"unobserved_reward":0},{"RT":3505,"time": "2018-08-15 05:57:47pm", "schedule_type": "STATIC", "schedule_name": "random_2", "is_biased_choice":false,"side_choice": "LEFT", "trial_number":89,"observed_reward":0,"unobserved_reward":0},{"RT":2720,"time": "2018-08-15 05:57:49pm", "schedule_type": "STATIC", "schedule_name": "random_2", "is_biased_choice":true,"side_choice": "RIGHT", "trial_number":90,"observed_reward":0,"unobserved_reward":0},{"RT":3026,"time": "2018-08-15 05:57:52pm", "schedule_type": "STATIC", "schedule_name": "random_2", "is_biased_choice":false,"side_choice": "LEFT", "trial_number":91,"observed_reward":1,"unobserved_reward":0},{"RT":2782,"time": "2018-08-15 05:57:55pm", "schedule_type": "STATIC", "schedule_name": "random_2", "is_biased_choice":true,"side_choice": "RIGHT", "trial_number":92,"observed_reward":0,"unobserved_reward":0},{"RT":2978,"time": "2018-08-15 05:57:58pm", "schedule_type": "STATIC", "schedule_name": "random_2", "is_biased_choice":false,"side_choice": "LEFT", "trial_number":93,"observed_reward":1,"unobserved_reward":0},{"RT":3408,"time": "2018-08-15 05:58:02pm", "schedule_type": "STATIC", "schedule_name": "random_2", "is_biased_choice":false,"side_choice": "LEFT", "trial_number":94,"observed_reward":1,"unobserved_reward":0},{"RT":3685,"time": "2018-08-15 05:58:05pm", "schedule_type": "STATIC", "schedule_name": "random_2", "is_biased_choice":true,"side_choice": "RIGHT", "trial_number":95,"observed_reward":1,"unobserved_reward":0},{"RT":2587,"time": "2018-08-15 05:58:08pm", "schedule_type": "STATIC", "schedule_name": "random_2", "is_biased_choice":false,"side_choice": "LEFT", "trial_number":96,"observed_reward":0,"unobserved_reward":0},{"RT":2674,"time": "2018-08-15 05:58:11pm", "schedule_type": "STATIC", "schedule_name": "random_2", "is_biased_choice":true,"side_choice": "RIGHT", "trial_number":97,"observed_reward":0,"unobserved_reward":0},{"RT":3479,"time": "2018-08-15 05:58:14pm", "schedule_type": "STATIC", "schedule_name": "random_2", "is_biased_choice":false,"side_choice": "LEFT", "trial_number":98,"observed_reward":0,"unobserved_reward":1},