trial_number, time, schedule_type, schedule_name, is_biased_choice, side_choice, RT, observed_reward, unobserved_reward, biased_reward, unbiased_reward
0,2018-08-15 05:52:16pm, STATIC, random_2, false, LEFT, 2828, 1, 0, 0, 1
1,2018-08-15 05:52:21pm, STATIC, random_2, true, RIGHT, 4409, 1, 0, 1, 0
2,2018-08-15 05:52:26pm, STATIC, random_2, false, LEFT, 4894, 0, 0, 0, 0
3,2018-08-15 05:52:29pm, STATIC, random_2, true, RIGHT, 3419, 0, 0, 0, 0
4,2018-08-15 05:52:33pm, STATIC, random_2, true, RIGHT, 3244, 0, 1, 0, 1
5,2018-08-15 05:52:35pm, STATIC, random_2, false, LEFT, 2856, 1, 0, 0, 1
6,2018-08-15 05:52:39pm, STATIC, random_2, false, LEFT, 2918, 0, 0, 0, 0
7,2018-08-15 05:52:41pm, STATIC, random_2, false, LEFT, 2905, 1, 1, 1, 1
8,2018-08-15 05:52:44pm, STATIC, random_2, false, LEFT, 3104, 0, 0, 0, 0
9,2018-08-15 05:52:47pm, STATIC, random_2, true, RIGHT, 2938, 0, 1, 0, 1
10,2018-08-15 05:52:51pm, STATIC, random_2, false, LEFT, 3712, 0, 0, 0, 0
11,2018-08-15 05:52:56pm, STATIC, random_2, true, RIGHT, 4846, 0, 0, 0, 0
12,2018-08-15 05:52:59pm, STATIC, random_2, false, LEFT, 2710, 1, 0, 0, 1
13,2018-08-15 05:53:02pm, STATIC, random_2, false, LEFT, 2846, 0, 0, 0, 0
14,2018-08-15 05:53:05pm, STATIC, random_2, false, LEFT, 2893, 0, 1, 1, 0
15,2018-08-15 05:53:08pm, STATIC, random_2, true, RIGHT, 3773, 0, 1, 0, 1
16,2018-08-15 05:53:11pm, STATIC, random_2, true, RIGHT, 2636, 0, 0, 0, 0
17,2018-08-15 05:53:14pm, STATIC, random_2, true, RIGHT, 2893, 0, 0, 0, 0
18,2018-08-15 05:53:16pm, STATIC, random_2, false, LEFT, 2527, 0, 1, 1, 0
19,2018-08-15 05:53:20pm, STATIC, random_2, false, LEFT, 3516, 1, 0, 0, 1
20,2018-08-15 05:53:23pm, STATIC, random_2, true, RIGHT, 2685, 0, 0, 0, 0
21,2018-08-15 05:53:26pm, STATIC, random_2, true, RIGHT, 3992, 0, 0, 0, 0
22,2018-08-15 05:53:30pm, STATIC, random_2, false, LEFT, 3844, 1, 0, 0, 1
23,2018-08-15 05:53:33pm, STATIC, random_2, false, LEFT, 3077, 0, 0, 0, 0
24,2018-08-15 05:53:36pm, STATIC, random_2, false, LEFT, 2796, 0, 0, 0, 0
25,2018-08-15 05:53:41pm, STATIC, random_2, false, LEFT, 4284, 1, 1, 1, 1
26,2018-08-15 05:53:44pm, STATIC, random_2, false, LEFT, 3100, 0, 1, 1, 0
27,2018-08-15 05:53:46pm, STATIC, random_2, false, LEFT, 2796, 0, 0, 0, 0
28,2018-08-15 05:53:51pm, STATIC, random_2, false, LEFT, 4321, 0, 0, 0, 0
29,2018-08-15 05:53:54pm, STATIC, random_2, false, LEFT, 3112, 1, 0, 0, 1
30,2018-08-15 05:53:57pm, STATIC, random_2, true, RIGHT, 2967, 1, 0, 1, 0
31,2018-08-15 05:53:59pm, STATIC, random_2, false, LEFT, 2906, 0, 1, 1, 0
32,2018-08-15 05:54:03pm, STATIC, random_2, false, LEFT, 2918, 0, 0, 0, 0
33,2018-08-15 05:54:39pm, STATIC, random_2, true, RIGHT, 36626, 0, 0, 0, 0
34,2018-08-15 05:54:42pm, STATIC, random_2, false, LEFT, 2514, 1, 0, 0, 1
35,2018-08-15 05:54:45pm, STATIC, random_2, false, LEFT, 3064, 0, 0, 0, 0
36,2018-08-15 05:54:48pm, STATIC, random_2, false, LEFT, 2992, 0, 0, 0, 0
37,2018-08-15 05:54:50pm, STATIC, random_2, false, LEFT, 2587, 0, 1, 1, 0
38,2018-08-15 05:54:54pm, STATIC, random_2, false, LEFT, 4296, 1, 1, 1, 1
39,2018-08-15 05:54:57pm, STATIC, random_2, false, LEFT, 2601, 0, 0, 0, 0
40,2018-08-15 05:55:00pm, STATIC, random_2, false, LEFT, 2784, 0, 1, 1, 0
41,2018-08-15 05:55:03pm, STATIC, random_2, false, LEFT, 2785, 0, 0, 0, 0
42,2018-08-15 05:55:05pm, STATIC, random_2, false, LEFT, 2721, 0, 0, 0, 0
43,2018-08-15 05:55:10pm, STATIC, random_2, false, LEFT, 3980, 0, 0, 0, 0
44,2018-08-15 05:55:13pm, STATIC, random_2, false, LEFT, 3797, 0, 0, 0, 0
45,2018-08-15 05:55:17pm, STATIC, random_2, false, LEFT, 4126, 0, 0, 0, 0
46,2018-08-15 05:55:21pm, STATIC, random_2, false, LEFT, 3664, 0, 1, 1, 0
47,2018-08-15 05:55:24pm, STATIC, random_2, false, LEFT, 2634, 0, 1, 1, 0
48,2018-08-15 05:55:26pm, STATIC, random_2, false, LEFT, 2600, 0, 0, 0, 0
49,2018-08-15 05:55:30pm, STATIC, random_2, true, RIGHT, 3345, 0, 0, 0, 0
50,2018-08-15 05:55:33pm, STATIC, random_2, true, RIGHT, 2992, 0, 0, 0, 0
51,2018-08-15 05:55:35pm, STATIC, random_2, false, LEFT, 2623, 0, 0, 0, 0
52,2018-08-15 05:55:38pm, STATIC, random_2, false, LEFT, 2625, 1, 0, 0, 1
53,2018-08-15 05:55:41pm, STATIC, random_2, false, LEFT, 3040, 0, 0, 0, 0
54,2018-08-15 05:55:45pm, STATIC, random_2, false, LEFT, 4223, 1, 1, 1, 1
55,2018-08-15 05:55:49pm, STATIC, random_2, false, LEFT, 4211, 0, 1, 1, 0
56,2018-08-15 05:55:53pm, STATIC, random_2, false, LEFT, 3748, 0, 0, 0, 0
57,2018-08-15 05:55:56pm, STATIC, random_2, false, LEFT, 3197, 1, 1, 1, 1
58,2018-08-15 05:56:02pm, STATIC, random_2, false, LEFT, 5301, 0, 0, 0, 0
59,2018-08-15 05:56:04pm, STATIC, random_2, false, LEFT, 2649, 0, 0, 0, 0
60,2018-08-15 05:56:09pm, STATIC, random_2, false, LEFT, 4308, 0, 1, 1, 0
61,2018-08-15 05:56:12pm, STATIC, random_2, false, LEFT, 3675, 0, 0, 0, 0
62,2018-08-15 05:56:23pm, STATIC, random_2, false, LEFT, 10754, 0, 0, 0, 0
63,2018-08-15 05:56:26pm, STATIC, random_2, false, LEFT, 2746, 0, 0, 0, 0
64,2018-08-15 05:56:29pm, STATIC, random_2, false, LEFT, 2721, 0, 0, 0, 0
65,2018-08-15 05:56:31pm, STATIC, random_2, false, LEFT, 2796, 0, 0, 0, 0
66,2018-08-15 05:56:34pm, STATIC, random_2, false, LEFT, 2489, 0, 0, 0, 0
67,2018-08-15 05:56:37pm, STATIC, random_2, true, RIGHT, 3186, 0, 0, 0, 0
68,2018-08-15 05:56:40pm, STATIC, random_2, false, LEFT, 2772, 0, 0, 0, 0
69,2018-08-15 05:56:43pm, STATIC, random_2, true, RIGHT, 2929, 1, 0, 1, 0
70,2018-08-15 05:56:46pm, STATIC, random_2, true, RIGHT, 3564, 0, 1, 0, 1
71,2018-08-15 05:56:49pm, STATIC, random_2, true, RIGHT, 2905, 1, 0, 1, 0
72,2018-08-15 05:56:53pm, STATIC, random_2, true, RIGHT, 3345, 0, 0, 0, 0
73,2018-08-15 05:56:55pm, STATIC, random_2, true, RIGHT, 3052, 0, 0, 0, 0
74,2018-08-15 05:56:59pm, STATIC, random_2, false, LEFT, 2892, 1, 0, 0, 1
75,2018-08-15 05:57:01pm, STATIC, random_2, true, RIGHT, 2859, 0, 0, 0, 0
76,2018-08-15 05:57:04pm, STATIC, random_2, false, LEFT, 2844, 0, 0, 0, 0
77,2018-08-15 05:57:08pm, STATIC, random_2, false, LEFT, 4223, 0, 0, 0, 0
78,2018-08-15 05:57:12pm, STATIC, random_2, true, RIGHT, 3897, 1, 0, 1, 0
79,2018-08-15 05:57:15pm, STATIC, random_2, false, LEFT, 2865, 1, 0, 0, 1
80,2018-08-15 05:57:18pm, STATIC, random_2, true, RIGHT, 2857, 0, 0, 0, 0
81,2018-08-15 05:57:21pm, STATIC, random_2, false, LEFT, 2636, 1, 1, 1, 1
82,2018-08-15 05:57:23pm, STATIC, random_2, true, RIGHT, 2662, 0, 0, 0, 0
83,2018-08-15 05:57:26pm, STATIC, random_2, false, LEFT, 2611, 0, 1, 1, 0
84,2018-08-15 05:57:29pm, STATIC, random_2, true, RIGHT, 2551, 0, 1, 0, 1
85,2018-08-15 05:57:34pm, STATIC, random_2, false, LEFT, 5845, 0, 1, 1, 0
86,2018-08-15 05:57:38pm, STATIC, random_2, true, RIGHT, 3419, 0, 0, 0, 0
87,2018-08-15 05:57:40pm, STATIC, random_2, false, LEFT, 2673, 0, 0, 0, 0
88,2018-08-15 05:57:43pm, STATIC, random_2, true, RIGHT, 2795, 0, 0, 0, 0
89,2018-08-15 05:57:47pm, STATIC, random_2, false, LEFT, 3505, 0, 0, 0, 0
90,2018-08-15 05:57:49pm, STATIC, random_2, true, RIGHT, 2720, 0, 0, 0, 0
91,2018-08-15 05:57:52pm, STATIC, random_2, false, LEFT, 3026, 1, 0, 0, 1
92,2018-08-15 05:57:55pm, STATIC, random_2, true, RIGHT, 2782, 0, 0, 0, 0
93,2018-08-15 05:57:58pm, STATIC, random_2, false, LEFT, 2978, 1, 0, 0, 1
94,2018-08-15 05:58:02pm, STATIC, random_2, false, LEFT, 3408, 1, 0, 0, 1
95,2018-08-15 05:58:05pm, STATIC, random_2, true, RIGHT, 3685, 1, 0, 1, 0
96,2018-08-15 05:58:08pm, STATIC, random_2, false, LEFT, 2587, 0, 0, 0, 0
97,2018-08-15 05:58:11pm, STATIC, random_2, true, RIGHT, 2674, 0, 0, 0, 0
98,2018-08-15 05:58:14pm, STATIC, random_2, false, LEFT, 3479, 0, 1, 1, 0
