[{"RT":3339,"time": "2018-08-15 03:30:08pm", "schedule_type": "STATIC", "schedule_name": "random_2", "is_biased_choice":true,"side_choice": "LEFT", "trial_number":0,"observed_reward":0,"unobserved_reward":1},{"RT":3088,"time": "2018-08-15 03:30:11pm", "schedule_type": "STATIC", "schedule_name": "random_2", "is_biased_choice":false,"side_choice": "RIGHT", "trial_number":1,"observed_reward":0,"unobserved_reward":1},{"RT":2823,"time": "2018-08-15 03:30:13pm", "schedule_type": "STATIC", "schedule_name": "random_2", "is_biased_choice":false,"side_choice": "RIGHT", "trial_number":2,"observed_reward":0,"unobserved_reward":0},{"RT":3993,"time": "2018-08-15 03:30:18pm", "schedule_type": "STATIC", "schedule_name": "random_2", "is_biased_choice":true,"side_choice": "LEFT", "trial_number":3,"observed_reward":0,"unobserved_reward":0},{"RT":3510,"time": "2018-08-15 03:30:21pm", "schedule_type": "STATIC", "schedule_name": "random_2", "is_biased_choice":false,"side_choice": "RIGHT", "trial_number":4,"observed_reward":1,"unobserved_reward":0},{"RT":2785,"time": "2018-08-15 03:30:24pm", "schedule_type": "STATIC", "schedule_name": "random_2", "is_biased_choice":true,"side_choice": "LEFT", "trial_number":5,"observed_reward":0,"unobserved_reward":1},{"RT":2737,"time": "2018-08-15 03:30:27pm", "schedule_type": "STATIC", "schedule_name": "random_2", "is_biased_choice":true,"side_choice": "LEFT", "trial_number":6,"observed_reward":0,"unobserved_reward":0},{"RT":3207,"time": "2018-08-15 03:30:30pm", "schedule_type": "STATIC", "schedule_name": "random_2", "is_biased_choice":true,"side_choice": "LEFT", "trial_number":7,"observed_reward":1,"unobserved_reward":1},{"RT":2520,"time": "2018-08-15 03:30:32pm", "schedule_type": "STATIC", "schedule_name": "random_2", "is_biased_choice":true,"side_choice": "LEFT", "trial_number":8,"observed_reward":0,"unobserved_reward":0},{"RT":2543,"time": "2018-08-15 03:30:35pm", "schedule_type": "STATIC", "schedule_name": "random_2", "is_biased_choice":false,"side_choice": "RIGHT", "trial_number":9,"observed_reward":1,"unobserved_reward":0},{"RT":2497,"time": "2018-08-15 03:30:37pm", "schedule_type": "STATIC", "schedule_name": "random_2", "is_biased_choice":true,"side_choice": "LEFT", "trial_number":10,"observed_reward":0,"unobserved_reward":0},{"RT":2408,"time": "2018-08-15 03:30:40pm", "schedule_type": "STATIC", "schedule_name": "random_2", "is_biased_choice":true,"side_choice": "LEFT", "trial_number":11,"observed_reward":0,"unobserved_reward":0},{"RT":2312,"time": "2018-08-15 03:30:42pm", "schedule_type": "STATIC", "schedule_name": "random_2", "is_biased_choice":true,"side_choice": "LEFT", "trial_number":12,"observed_reward":0,"unobserved_reward":1},{"RT":2321,"time": "2018-08-15 03:30:44pm", "schedule_type": "STATIC", "schedule_name": "random_2", "is_biased_choice":false,"side_choice": "RIGHT", "trial_number":13,"observed_reward":0,"unobserved_reward":0},{"RT":2240,"time": "2018-08-15 03:30:47pm", "schedule_type": "STATIC", "schedule_name": "random_2", "is_biased_choice":true,"side_choice": "LEFT", "trial_number":14,"observed_reward":1,"unobserved_reward":0},{"RT":2816,"time": "2018-08-15 03:30:49pm", "schedule_type": "STATIC", "schedule_name": "random_2", "is_biased_choice":false,"side_choice": "RIGHT", "trial_number":15,"observed_reward":1,"unobserved_reward":0},{"RT":2863,"time": "2018-08-15 03:30:52pm", "schedule_type": "STATIC", "schedule_name": "random_2", "is_biased_choice":false,"side_choice": "RIGHT", "trial_number":16,"observed_reward":0,"unobserved_reward":0},{"RT":2304,"time": "2018-08-15 03:30:55pm", "schedule_type": "STATIC", "schedule_name": "random_2", "is_biased_choice":true,"side_choice": "LEFT", "trial_number":17,"observed_reward":0,"unobserved_reward":0},{"RT":2233,"time": "2018-08-15 03:30:57pm", "schedule_type": "STATIC", "schedule_name": "random_2", "is_biased_choice":true,"side_choice": "LEFT", "trial_number":18,"observed_reward":1,"unobserved_reward":0},{"RT":2663,"time": "2018-08-15 03:30:59pm", "schedule_type": "STATIC", "schedule_name": "random_2", "is_biased_choice":false,"side_choice": "RIGHT", "trial_number":19,"observed_reward":1,"unobserved_reward":0},{"RT":2345,"time": "2018-08-15 03:31:02pm", "schedule_type": "STATIC", "schedule_name": "random_2", "is_biased_choice":true,"side_choice": "LEFT", "trial_number":20,"observed_reward":0,"unobserved_reward":0},{"RT":2296,"time": "2018-08-15 03:31:04pm", "schedule_type": "STATIC", "schedule_name": "random_2", "is_biased_choice":false,"side_choice": "RIGHT", "trial_number":21,"observed_reward":0,"unobserved_reward":0},{"RT":2776,"time": "2018-08-15 03:31:07pm", "schedule_type": "STATIC", "schedule_name": "random_2", "is_biased_choice":false,"side_choice": "RIGHT", "trial_number":22,"observed_reward":1,"unobserved_reward":0},{"RT":2511,"time": "2018-08-15 03:31:09pm", "schedule_type": "STATIC", "schedule_name": "random_2", "is_biased_choice":true,"side_choice": "LEFT", "trial_number":23,"observed_reward":0,"unobserved_reward":0},{"RT":2361,"time": "2018-08-15 03:31:12pm", "schedule_type": "STATIC", "schedule_name": "random_2", "is_biased_choice":false,"side_choice": "RIGHT", "trial_number":24,"observed_reward":0,"unobserved_reward":0},{"RT":2335,"time": "2018-08-15 03:31:14pm", "schedule_type": "STATIC", "schedule_name": "random_2", "is_biased_choice":true,"side_choice": "LEFT", "trial_number":25,"observed_reward":1,"unobserved_reward":1},{"RT":2274,"time": "2018-08-15 03:31:17pm", "schedule_type": "STATIC", "schedule_name": "random_2", "is_biased_choice":true,"side_choice": "LEFT", "trial_number":26,"observed_reward":1,"unobserved_reward":0},{"RT":2319,"time": "2018-08-15 03:31:19pm", "schedule_type": "STATIC", "schedule_name": "random_2", "is_biased_choice":true,"side_choice": "LEFT", "trial_number":27,"observed_reward":0,"unobserved_reward":0},{"RT":2385,"time": "2018-08-15 03:31:21pm", "schedule_type": "STATIC", "schedule_name": "random_2", "is_biased_choice":false,"side_choice": "RIGHT", "trial_number":28,"observed_reward":0,"unobserved_reward":0},{"RT":2231,"time": "2018-08-15 03:31:23pm", "schedule_type": "STATIC", "schedule_name": "random_2", "is_biased_choice":true,"side_choice": "LEFT", "trial_number":29,"observed_reward":0,"unobserved_reward":1},{"RT":2193,"time": "2018-08-15 03:31:26pm", "schedule_type": "STATIC", "schedule_name": "random_2", "is_biased_choice":true,"side_choice": "LEFT", "trial_number":30,"observed_reward":1,"unobserved_reward":0},{"RT":2382,"time": "2018-08-15 03:31:28pm", "schedule_type": "STATIC", "schedule_name": "random_2", "is_biased_choice":false,"side_choice": "RIGHT", "trial_number":31,"observed_reward":0,"unobserved_reward":1},{"RT":2144,"time": "2018-08-15 03:31:30pm", "schedule_type": "STATIC", "schedule_name": "random_2", "is_biased_choice":true,"side_choice": "LEFT", "trial_number":32,"observed_reward":0,"unobserved_reward":0},{"RT":2337,"time": "2018-08-15 03:31:32pm", "schedule_type": "STATIC", "schedule_name": "random_2", "is_biased_choice":true,"side_choice": "LEFT", "trial_number":33,"observed_reward":0,"unobserved_reward":0},{"RT":2575,"time": "2018-08-15 03:31:35pm", "schedule_type": "STATIC", "schedule_name": "random_2", "is_biased_choice":false,"side_choice": "RIGHT", "trial_number":34,"observed_reward":1,"unobserved_reward":0},{"RT":2729,"time": "2018-08-15 03:31:38pm", "schedule_type": "STATIC", "schedule_name": "random_2", "is_biased_choice":true,"side_choice": "LEFT", "trial_number":35,"observed_reward":0,"unobserved_reward":0},{"RT":4000,"time": "2018-08-15 03:31:42pm", "schedule_type": "STATIC", "schedule_name": "random_2", "is_biased_choice":true,"side_choice": "LEFT", "trial_number":36,"observed_reward":0,"unobserved_reward":0},{"RT":2816,"time": "2018-08-15 03:31:44pm", "schedule_type": "STATIC", "schedule_name": "random_2", "is_biased_choice":true,"side_choice": "LEFT", "trial_number":37,"observed_reward":1,"unobserved_reward":0},{"RT":2479,"time": "2018-08-15 03:31:47pm", "schedule_type": "STATIC", "schedule_name": "random_2", "is_biased_choice":true,"side_choice": "LEFT", "trial_number":38,"observed_reward":1,"unobserved_reward":1},{"RT":2737,"time": "2018-08-15 03:31:50pm", "schedule_type": "STATIC", "schedule_name": "random_2", "is_biased_choice":false,"side_choice": "RIGHT", "trial_number":39,"observed_reward":0,"unobserved_reward":0},{"RT":2312,"time": "2018-08-15 03:31:52pm", "schedule_type": "STATIC", "schedule_name": "random_2", "is_biased_choice":true,"side_choice": "LEFT", "trial_number":40,"observed_reward":1,"unobserved_reward":0},{"RT":2608,"time": "2018-08-15 03:31:55pm", "schedule_type": "STATIC", "schedule_name": "random_2", "is_biased_choice":true,"side_choice": "LEFT", "trial_number":41,"observed_reward":0,"unobserved_reward":0},{"RT":2888,"time": "2018-08-15 03:31:58pm", "schedule_type": "STATIC", "schedule_name": "random_2", "is_biased_choice":false,"side_choice": "RIGHT", "trial_number":42,"observed_reward":0,"unobserved_reward":0},{"RT":2352,"time": "2018-08-15 03:32:00pm", "schedule_type": "STATIC", "schedule_name": "random_2", "is_biased_choice":true,"side_choice": "LEFT", "trial_number":43,"observed_reward":0,"unobserved_reward":0},{"RT":2311,"time": "2018-08-15 03:32:02pm", "schedule_type": "STATIC", "schedule_name": "random_2", "is_biased_choice":false,"side_choice": "RIGHT", "trial_number":44,"observed_reward":0,"unobserved_reward":0},{"RT":2992,"time": "2018-08-15 03:32:05pm", "schedule_type": "STATIC", "schedule_name": "random_2", "is_biased_choice":true,"side_choice": "LEFT", "trial_number":45,"observed_reward":0,"unobserved_reward":0},{"RT":2719,"time": "2018-08-15 03:32:08pm", "schedule_type": "STATIC", "schedule_name": "random_2", "is_biased_choice":true,"side_choice": "LEFT", "trial_number":46,"observed_reward":1,"unobserved_reward":0},{"RT":3209,"time": "2018-08-15 03:32:11pm", "schedule_type": "STATIC", "schedule_name": "random_2", "is_biased_choice":false,"side_choice": "RIGHT", "trial_number":47,"observed_reward":0,"unobserved_reward":1},{"RT":5256,"time": "2018-08-15 03:32:17pm", "schedule_type": "STATIC", "schedule_name": "random_2", "is_biased_choice":false,"side_choice": "RIGHT", "trial_number":48,"observed_reward":0,"unobserved_reward":0},{"RT":10744,"time": "2018-08-15 03:32:27pm", "schedule_type": "STATIC", "schedule_name": "random_2", "is_biased_choice":false,"side_choice": "RIGHT", "trial_number":49,"observed_reward":0,"unobserved_reward":0},{"RT":2681,"time": "2018-08-15 03:32:30pm", "schedule_type": "STATIC", "schedule_name": "random_2", "is_biased_choice":true,"side_choice": "LEFT", "trial_number":50,"observed_reward":0,"unobserved_reward":0},{"RT":2360,"time": "2018-08-15 03:32:32pm", "schedule_type": "STATIC", "schedule_name": "random_2", "is_biased_choice":true,"side_choice": "LEFT", "trial_number":51,"observed_reward":0,"unobserved_reward":0},{"RT":2736,"time": "2018-08-15 03:32:35pm", "schedule_type": "STATIC", "schedule_name": "random_2", "is_biased_choice":false,"side_choice": "RIGHT", "trial_number":52,"observed_reward":1,"unobserved_reward":0},{"RT":2335,"time": "2018-08-15 03:32:37pm", "schedule_type": "STATIC", "schedule_name": "random_2", "is_biased_choice":true,"side_choice": "LEFT", "trial_number":53,"observed_reward":0,"unobserved_reward":0},{"RT":2575,"time": "2018-08-15 03:32:40pm", "schedule_type": "STATIC", "schedule_name": "random_2", "is_biased_choice":false,"side_choice": "RIGHT", "trial_number":54,"observed_reward":1,"unobserved_reward":1},{"RT":2400,"time": "2018-08-15 03:32:42pm", "schedule_type": "STATIC", "schedule_name": "random_2", "is_biased_choice":false,"side_choice": "RIGHT", "trial_number":55,"observed_reward":0,"unobserved_reward":1},{"RT":2297,"time": "2018-08-15 03:32:44pm", "schedule_type": "STATIC", "schedule_name": "random_2", "is_biased_choice":true,"side_choice": "LEFT", "trial_number":56,"observed_reward":0,"unobserved_reward":0},{"RT":2353,"time": "2018-08-15 03:32:47pm", "schedule_type": "STATIC", "schedule_name": "random_2", "is_biased_choice":false,"side_choice": "RIGHT", "trial_number":57,"observed_reward":1,"unobserved_reward":1},{"RT":2288,"time": "2018-08-15 03:32:49pm", "schedule_type": "STATIC", "schedule_name": "random_2", "is_biased_choice":true,"side_choice": "LEFT", "trial_number":58,"observed_reward":0,"unobserved_reward":0},{"RT":2344,"time": "2018-08-15 03:32:51pm", "schedule_type": "STATIC", "schedule_name": "random_2", "is_biased_choice":false,"side_choice": "RIGHT", "trial_number":59,"observed_reward":0,"unobserved_reward":0},{"RT":2359,"time": "2018-08-15 03:32:54pm", "schedule_type": "STATIC", "schedule_name": "random_2", "is_biased_choice":false,"side_choice": "RIGHT", "trial_number":60,"observed_reward":0,"unobserved_reward":1},{"RT":3096,"time": "2018-08-15 03:32:57pm", "schedule_type": "STATIC", "schedule_name": "random_2", "is_biased_choice":true,"side_choice": "LEFT", "trial_number":61,"observed_reward":0,"unobserved_reward":0},{"RT":2440,"time": "2018-08-15 03:32:59pm", "schedule_type": "STATIC", "schedule_name": "random_2", "is_biased_choice":false,"side_choice": "RIGHT", "trial_number":62,"observed_reward":0,"unobserved_reward":0},{"RT":7497,"time": "2018-08-15 03:33:07pm", "schedule_type": "STATIC", "schedule_name": "random_2", "is_biased_choice":true,"side_choice": "LEFT", "trial_number":63,"observed_reward":0,"unobserved_reward":0},{"RT":2728,"time": "2018-08-15 03:33:09pm", "schedule_type": "STATIC", "schedule_name": "random_2", "is_biased_choice":false,"side_choice": "RIGHT", "trial_number":64,"observed_reward":0,"unobserved_reward":0},{"RT":2503,"time": "2018-08-15 03:33:12pm", "schedule_type": "STATIC", "schedule_name": "random_2", "is_biased_choice":true,"side_choice": "LEFT", "trial_number":65,"observed_reward":0,"unobserved_reward":0},{"RT":2240,"time": "2018-08-15 03:33:14pm", "schedule_type": "STATIC", "schedule_name": "random_2", "is_biased_choice":true,"side_choice": "LEFT", "trial_number":66,"observed_reward":0,"unobserved_reward":0},{"RT":2800,"time": "2018-08-15 03:33:17pm", "schedule_type": "STATIC", "schedule_name": "random_2", "is_biased_choice":false,"side_choice": "RIGHT", "trial_number":67,"observed_reward":0,"unobserved_reward":0},{"RT":2504,"time": "2018-08-15 03:33:20pm", "schedule_type": "STATIC", "schedule_name": "random_2", "is_biased_choice":true,"side_choice": "LEFT", "trial_number":68,"observed_reward":0,"unobserved_reward":0},{"RT":2337,"time": "2018-08-15 03:33:22pm", "schedule_type": "STATIC", "schedule_name": "random_2", "is_biased_choice":true,"side_choice": "LEFT", "trial_number":69,"observed_reward":1,"unobserved_reward":0},{"RT":2312,"time": "2018-08-15 03:33:24pm", "schedule_type": "STATIC", "schedule_name": "random_2", "is_biased_choice":true,"side_choice": "LEFT", "trial_number":70,"observed_reward":0,"unobserved_reward":1},{"RT":2592,"time": "2018-08-15 03:33:27pm", "schedule_type": "STATIC", "schedule_name": "random_2", "is_biased_choice":false,"side_choice": "RIGHT", "trial_number":71,"observed_reward":0,"unobserved_reward":1},{"RT":2248,"time": "2018-08-15 03:33:29pm", "schedule_type": "STATIC", "schedule_name": "random_2", "is_biased_choice":true,"side_choice": "LEFT", "trial_number":72,"observed_reward":0,"unobserved_reward":0},{"RT":2431,"time": "2018-08-15 03:33:31pm", "schedule_type": "STATIC", "schedule_name": "random_2", "is_biased_choice":false,"side_choice": "RIGHT", "trial_number":73,"observed_reward":0,"unobserved_reward":0},{"RT":43137,"time": "2018-08-15 03:34:15pm", "schedule_type": "STATIC", "schedule_name": "random_2", "is_biased_choice":false,"side_choice": "RIGHT", "trial_number":74,"observed_reward":1,"unobserved_reward":0},{"RT":2704,"time": "2018-08-15 03:34:17pm", "schedule_type": "STATIC", "schedule_name": "random_2", "is_biased_choice":false,"side_choice": "RIGHT", "trial_number":75,"observed_reward":0,"unobserved_reward":0},{"RT":2360,"time": "2018-08-15 03:34:20pm", "schedule_type": "STATIC", "schedule_name": "random_2", "is_biased_choice":true,"side_choice": "LEFT", "trial_number":76,"observed_reward":0,"unobserved_reward":0},{"RT":2303,"time": "2018-08-15 03:34:22pm", "schedule_type": "STATIC", "schedule_name": "random_2", "is_biased_choice":false,"side_choice": "RIGHT", "trial_number":77,"observed_reward":0,"unobserved_reward":0},{"RT":2351,"time": "2018-08-15 03:34:24pm", "schedule_type": "STATIC", "schedule_name": "random_2", "is_biased_choice":true,"side_choice": "LEFT", "trial_number":78,"observed_reward":1,"unobserved_reward":0},{"RT":2232,"time": "2018-08-15 03:34:27pm", "schedule_type": "STATIC", "schedule_name": "random_2", "is_biased_choice":true,"side_choice": "LEFT", "trial_number":79,"observed_reward":0,"unobserved_reward":1},{"RT":2265,"time": "2018-08-15 03:34:29pm", "schedule_type": "STATIC", "schedule_name": "random_2", "is_biased_choice":true,"side_choice": "LEFT", "trial_number":80,"observed_reward":0,"unobserved_reward":0},{"RT":2312,"time": "2018-08-15 03:34:31pm", "schedule_type": "STATIC", "schedule_name": "random_2", "is_biased_choice":false,"side_choice": "RIGHT", "trial_number":81,"observed_reward":1,"unobserved_reward":1},{"RT":2281,"time": "2018-08-15 03:34:33pm", "schedule_type": "STATIC", "schedule_name": "random_2", "is_biased_choice":true,"side_choice": "LEFT", "trial_number":82,"observed_reward":0,"unobserved_reward":0},{"RT":2311,"time": "2018-08-15 03:34:36pm", "schedule_type": "STATIC", "schedule_name": "random_2", "is_biased_choice":false,"side_choice": "RIGHT", "trial_number":83,"observed_reward":0,"unobserved_reward":1},{"RT":2257,"time": "2018-08-15 03:34:38pm", "schedule_type": "STATIC", "schedule_name": "random_2", "is_biased_choice":true,"side_choice": "LEFT", "trial_number":84,"observed_reward":0,"unobserved_reward":1},{"RT":2392,"time": "2018-08-15 03:34:40pm", "schedule_type": "STATIC", "schedule_name": "random_2", "is_biased_choice":false,"side_choice": "RIGHT", "trial_number":85,"observed_reward":0,"unobserved_reward":1},{"RT":2655,"time": "2018-08-15 03:34:43pm", "schedule_type": "STATIC", "schedule_name": "random_2", "is_biased_choice":false,"side_choice": "RIGHT", "trial_number":86,"observed_reward":0,"unobserved_reward":0},{"RT":2352,"time": "2018-08-15 03:34:46pm", "schedule_type": "STATIC", "schedule_name": "random_2", "is_biased_choice":false,"side_choice": "RIGHT", "trial_number":87,"observed_reward":0,"unobserved_reward":0},{"RT":2383,"time": "2018-08-15 03:34:48pm", "schedule_type": "STATIC", "schedule_name": "random_2", "is_biased_choice":false,"side_choice": "RIGHT", "trial_number":88,"observed_reward":0,"unobserved_reward":0},{"RT":2314,"time": "2018-08-15 03:34:50pm", "schedule_type": "STATIC", "schedule_name": "random_2", "is_biased_choice":false,"side_choice": "RIGHT", "trial_number":89,"observed_reward":0,"unobserved_reward":0},{"RT":3240,"time": "2018-08-15 03:34:53pm", "schedule_type": "STATIC", "schedule_name": "random_2", "is_biased_choice":false,"side_choice": "RIGHT", "trial_number":90,"observed_reward":0,"unobserved_reward":0},{"RT":2575,"time": "2018-08-15 03:34:56pm", "schedule_type": "STATIC", "schedule_name": "random_2", "is_biased_choice":false,"side_choice": "RIGHT", "trial_number":91,"observed_reward":1,"unobserved_reward":0},{"RT":2336,"time": "2018-08-15 03:34:58pm", "schedule_type": "STATIC", "schedule_name": "random_2", "is_biased_choice":false,"side_choice": "RIGHT", "trial_number":92,"observed_reward":0,"unobserved_reward":0},{"RT":2495,"time": "2018-08-15 03:35:01pm", "schedule_type": "STATIC", "schedule_name": "random_2", "is_biased_choice":false,"side_choice": "RIGHT", "trial_number":93,"observed_reward":1,"unobserved_reward":0},{"RT":2464,"time": "2018-08-15 03:35:03pm", "schedule_type": "STATIC", "schedule_name": "random_2", "is_biased_choice":false,"side_choice": "RIGHT", "trial_number":94,"observed_reward":1,"unobserved_reward":0},{"RT":2305,"time": "2018-08-15 03:35:06pm", "schedule_type": "STATIC", "schedule_name": "random_2", "is_biased_choice":false,"side_choice": "RIGHT", "trial_number":95,"observed_reward":0,"unobserved_reward":1},{"RT":2265,"time": "2018-08-15 03:35:08pm", "schedule_type": "STATIC", "schedule_name": "random_2", "is_biased_choice":false,"side_choice": "RIGHT", "trial_number":96,"observed_reward":0,"unobserved_reward":0},{"RT":2536,"time": "2018-08-15 03:35:10pm", "schedule_type": "STATIC", "schedule_name": "random_2", "is_biased_choice":false,"side_choice": "RIGHT", "trial_number":97,"observed_reward":0,"unobserved_reward":0},{"RT":2407,"time": "2018-08-15 03:35:13pm", "schedule_type": "STATIC", "schedule_name": "random_2", "is_biased_choice":true,"side_choice": "LEFT", "trial_number":98,"observed_reward":1,"unobserved_reward":0},{"RT":2224,"time": "2018-08-15 03:35:15pm", "schedule_type": "STATIC", "schedule_name": "random_2", "is_biased_choice":true,"side_choice": "LEFT", "trial_number":99,"observed_reward":0,"unobserved_reward":1},