trial_number, time, schedule_type, schedule_name, is_biased_choice, side_choice, RT, observed_reward, unobserved_reward, biased_reward, unbiased_reward
0,2018-07-29 03:59:49pm, STATIC, random_2, true, LEFT, 4789, 0, 1, 0, 1
1,2018-07-29 03:59:55pm, STATIC, random_2, false, RIGHT, 4288, 0, 1, 1, 0
2,2018-07-29 04:00:00pm, STATIC, random_2, false, RIGHT, 6231, 0, 0, 0, 0
3,2018-07-29 04:00:04pm, STATIC, random_2, true, LEFT, 3776, 0, 0, 0, 0
4,2018-07-29 04:00:07pm, STATIC, random_2, true, LEFT, 3264, 0, 1, 0, 1
5,2018-07-29 04:00:10pm, STATIC, random_2, false, RIGHT, 3144, 1, 0, 0, 1
6,2018-07-29 04:00:14pm, STATIC, random_2, false, RIGHT, 3137, 0, 0, 0, 0
7,2018-07-29 04:00:16pm, STATIC, random_2, false, RIGHT, 2504, 1, 1, 1, 1
8,2018-07-29 04:00:19pm, STATIC, random_2, false, RIGHT, 3239, 0, 0, 0, 0
9,2018-07-29 04:00:21pm, STATIC, random_2, false, RIGHT, 2551, 1, 0, 0, 1
10,2018-07-29 04:00:24pm, STATIC, random_2, true, LEFT, 2922, 0, 0, 0, 0
11,2018-07-29 04:00:27pm, STATIC, random_2, false, RIGHT, 2480, 0, 0, 0, 0
12,2018-07-29 04:00:30pm, STATIC, random_2, false, RIGHT, 2775, 1, 0, 0, 1
13,2018-07-29 04:00:32pm, STATIC, random_2, true, LEFT, 2496, 0, 0, 0, 0
14,2018-07-29 04:00:35pm, STATIC, random_2, true, LEFT, 2560, 1, 0, 1, 0
15,2018-07-29 04:00:37pm, STATIC, random_2, false, RIGHT, 2751, 1, 0, 0, 1
16,2018-07-29 04:00:40pm, STATIC, random_2, false, RIGHT, 2833, 0, 0, 0, 0
17,2018-07-29 04:00:43pm, STATIC, random_2, true, LEFT, 2504, 0, 0, 0, 0
18,2018-07-29 04:00:46pm, STATIC, random_2, false, RIGHT, 3072, 0, 1, 1, 0
19,2018-07-29 04:00:48pm, STATIC, random_2, false, RIGHT, 2456, 1, 0, 0, 1
20,2018-07-29 04:00:52pm, STATIC, random_2, true, LEFT, 3176, 0, 0, 0, 0
21,2018-07-29 04:00:54pm, STATIC, random_2, false, RIGHT, 2423, 0, 0, 0, 0
22,2018-07-29 04:00:56pm, STATIC, random_2, false, RIGHT, 2456, 1, 0, 0, 1
23,2018-07-29 04:00:59pm, STATIC, random_2, false, RIGHT, 2817, 0, 0, 0, 0
24,2018-07-29 04:01:02pm, STATIC, random_2, true, LEFT, 2680, 0, 0, 0, 0
25,2018-07-29 04:01:05pm, STATIC, random_2, false, RIGHT, 2576, 1, 1, 1, 1
26,2018-07-29 04:01:07pm, STATIC, random_2, false, RIGHT, 2984, 0, 1, 1, 0
27,2018-07-29 04:01:11pm, STATIC, random_2, false, RIGHT, 3105, 0, 0, 0, 0
28,2018-07-29 04:01:13pm, STATIC, random_2, false, RIGHT, 2766, 0, 0, 0, 0
29,2018-07-29 04:01:16pm, STATIC, random_2, false, RIGHT, 3024, 1, 0, 0, 1
30,2018-07-29 04:01:19pm, STATIC, random_2, true, LEFT, 2641, 1, 0, 1, 0
31,2018-07-29 04:01:21pm, STATIC, random_2, false, RIGHT, 2376, 0, 1, 1, 0
32,2018-07-29 04:01:24pm, STATIC, random_2, false, RIGHT, 3000, 0, 0, 0, 0
33,2018-07-29 04:01:27pm, STATIC, random_2, true, LEFT, 2463, 0, 0, 0, 0
34,2018-07-29 04:01:29pm, STATIC, random_2, true, LEFT, 2320, 0, 1, 0, 1
35,2018-07-29 04:01:31pm, STATIC, random_2, false, RIGHT, 2272, 0, 0, 0, 0
36,2018-07-29 04:01:34pm, STATIC, random_2, true, LEFT, 2632, 0, 0, 0, 0
37,2018-07-29 04:01:36pm, STATIC, random_2, false, RIGHT, 2409, 0, 1, 1, 0
38,2018-07-29 04:01:39pm, STATIC, random_2, false, RIGHT, 2336, 1, 1, 1, 1
39,2018-07-29 04:01:41pm, STATIC, random_2, false, RIGHT, 2408, 0, 0, 0, 0
40,2018-07-29 04:01:44pm, STATIC, random_2, false, RIGHT, 2432, 0, 1, 1, 0
41,2018-07-29 04:01:46pm, STATIC, random_2, false, RIGHT, 2551, 0, 0, 0, 0
42,2018-07-29 04:01:49pm, STATIC, random_2, false, RIGHT, 2352, 0, 0, 0, 0
43,2018-07-29 04:01:51pm, STATIC, random_2, false, RIGHT, 2537, 0, 0, 0, 0
44,2018-07-29 04:01:53pm, STATIC, random_2, false, RIGHT, 2369, 0, 0, 0, 0
45,2018-07-29 04:01:56pm, STATIC, random_2, true, LEFT, 2399, 0, 0, 0, 0
46,2018-07-29 04:01:58pm, STATIC, random_2, false, RIGHT, 2368, 0, 1, 1, 0
47,2018-07-29 04:02:01pm, STATIC, random_2, true, LEFT, 3009, 1, 0, 1, 0
48,2018-07-29 04:02:04pm, STATIC, random_2, true, LEFT, 2502, 0, 0, 0, 0
49,2018-07-29 04:02:06pm, STATIC, random_2, false, RIGHT, 2473, 0, 0, 0, 0
50,2018-07-29 04:02:09pm, STATIC, random_2, false, RIGHT, 2304, 0, 0, 0, 0
51,2018-07-29 04:02:12pm, STATIC, random_2, true, LEFT, 3272, 0, 0, 0, 0
52,2018-07-29 04:02:15pm, STATIC, random_2, true, LEFT, 2864, 0, 1, 0, 1
53,2018-07-29 04:02:17pm, STATIC, random_2, false, RIGHT, 2712, 0, 0, 0, 0
54,2018-07-29 04:02:21pm, STATIC, random_2, false, RIGHT, 3527, 1, 1, 1, 1
55,2018-07-29 04:02:24pm, STATIC, random_2, false, RIGHT, 2608, 0, 1, 1, 0
56,2018-07-29 04:02:28pm, STATIC, random_2, false, RIGHT, 3202, 0, 0, 0, 0
57,2018-07-29 04:02:30pm, STATIC, random_2, false, RIGHT, 3447, 1, 1, 1, 1
58,2018-07-29 04:02:33pm, STATIC, random_2, false, RIGHT, 2488, 0, 0, 0, 0
59,2018-07-29 04:02:36pm, STATIC, random_2, false, RIGHT, 2513, 0, 0, 0, 0
60,2018-07-29 04:02:38pm, STATIC, random_2, false, RIGHT, 2431, 0, 1, 1, 0
61,2018-07-29 04:02:40pm, STATIC, random_2, false, RIGHT, 2440, 0, 0, 0, 0
62,2018-07-29 04:02:43pm, STATIC, random_2, true, LEFT, 2489, 0, 0, 0, 0
63,2018-07-29 04:02:45pm, STATIC, random_2, false, RIGHT, 2360, 0, 0, 0, 0
64,2018-07-29 04:02:48pm, STATIC, random_2, false, RIGHT, 3128, 0, 0, 0, 0
65,2018-07-29 04:02:51pm, STATIC, random_2, false, RIGHT, 2592, 0, 0, 0, 0
66,2018-07-29 04:02:55pm, STATIC, random_2, true, LEFT, 4055, 0, 0, 0, 0
67,2018-07-29 04:02:58pm, STATIC, random_2, false, RIGHT, 3128, 0, 0, 0, 0
68,2018-07-29 04:03:00pm, STATIC, random_2, true, LEFT, 2568, 0, 0, 0, 0
69,2018-07-29 04:03:03pm, STATIC, random_2, true, LEFT, 2537, 1, 0, 1, 0
70,2018-07-29 04:03:06pm, STATIC, random_2, true, LEFT, 2727, 0, 1, 0, 1
71,2018-07-29 04:03:08pm, STATIC, random_2, false, RIGHT, 2505, 0, 1, 1, 0
72,2018-07-29 04:03:10pm, STATIC, random_2, true, LEFT, 2400, 0, 0, 0, 0
73,2018-07-29 04:03:13pm, STATIC, random_2, false, RIGHT, 2871, 0, 0, 0, 0
74,2018-07-29 04:03:19pm, STATIC, random_2, false, RIGHT, 2656, 1, 0, 0, 1
75,2018-07-29 04:03:19pm, STATIC, random_2, false, RIGHT, 2408, 0, 0, 0, 0
76,2018-07-29 04:03:21pm, STATIC, random_2, true, LEFT, 2329, 0, 0, 0, 0
77,2018-07-29 04:03:25pm, STATIC, random_2, true, LEFT, 3560, 0, 0, 0, 0
78,2018-07-29 04:03:27pm, STATIC, random_2, false, RIGHT, 2648, 0, 1, 1, 0
79,2018-07-29 04:03:30pm, STATIC, random_2, false, RIGHT, 2512, 1, 0, 0, 1
80,2018-07-29 04:03:34pm, STATIC, random_2, false, RIGHT, 3991, 0, 0, 0, 0
81,2018-07-29 04:03:39pm, STATIC, random_2, false, RIGHT, 4737, 1, 1, 1, 1
82,2018-07-29 04:03:42pm, STATIC, random_2, false, RIGHT, 3808, 0, 0, 0, 0
83,2018-07-29 04:03:46pm, STATIC, random_2, true, LEFT, 3399, 1, 0, 1, 0
84,2018-07-29 04:03:51pm, STATIC, random_2, false, RIGHT, 5351, 1, 0, 0, 1
85,2018-07-29 04:03:56pm, STATIC, random_2, false, RIGHT, 4617, 0, 1, 1, 0
86,2018-07-29 04:03:59pm, STATIC, random_2, true, LEFT, 3392, 0, 0, 0, 0
87,2018-07-29 04:04:03pm, STATIC, random_2, false, RIGHT, 3761, 0, 0, 0, 0
88,2018-07-29 04:04:06pm, STATIC, random_2, true, LEFT, 3295, 0, 0, 0, 0
89,2018-07-29 04:04:08pm, STATIC, random_2, false, RIGHT, 2415, 0, 0, 0, 0
90,2018-07-29 04:04:11pm, STATIC, random_2, true, LEFT, 2713, 0, 0, 0, 0
91,2018-07-29 04:04:13pm, STATIC, random_2, false, RIGHT, 2432, 1, 0, 0, 1
92,2018-07-29 04:04:17pm, STATIC, random_2, false, RIGHT, 2697, 0, 0, 0, 0
93,2018-07-29 04:04:19pm, STATIC, random_2, false, RIGHT, 3143, 1, 0, 0, 1
94,2018-07-29 04:04:22pm, STATIC, random_2, false, RIGHT, 2480, 1, 0, 0, 1
95,2018-07-29 04:04:24pm, STATIC, random_2, false, RIGHT, 2495, 0, 1, 1, 0
96,2018-07-29 04:04:27pm, STATIC, random_2, false, RIGHT, 2448, 0, 0, 0, 0
97,2018-07-29 04:04:29pm, STATIC, random_2, false, RIGHT, 2530, 0, 0, 0, 0
98,2018-07-29 04:04:32pm, STATIC, random_2, false, RIGHT, 2367, 0, 1, 1, 0
99,2018-07-29 04:04:34pm, STATIC, random_2, false, RIGHT, 2336, 1, 0, 0, 1
