[{"RT":5270,"time": "2018-08-15 05:28:22pm", "schedule_type": "STATIC", "schedule_name": "random_2", "is_biased_choice":true,"side_choice": "LEFT", "trial_number":0,"observed_reward":0,"unobserved_reward":1},{"RT":3296,"time": "2018-08-15 05:28:25pm", "schedule_type": "STATIC", "schedule_name": "random_2", "is_biased_choice":false,"side_choice": "RIGHT", "trial_number":1,"observed_reward":0,"unobserved_reward":1},{"RT":2726,"time": "2018-08-15 05:28:28pm", "schedule_type": "STATIC", "schedule_name": "random_2", "is_biased_choice":true,"side_choice": "LEFT", "trial_number":2,"observed_reward":0,"unobserved_reward":0},{"RT":3073,"time": "2018-08-15 05:28:31pm", "schedule_type": "STATIC", "schedule_name": "random_2", "is_biased_choice":true,"side_choice": "LEFT", "trial_number":3,"observed_reward":0,"unobserved_reward":0},{"RT":2857,"time": "2018-08-15 05:28:33pm", "schedule_type": "STATIC", "schedule_name": "random_2", "is_biased_choice":true,"side_choice": "LEFT", "trial_number":4,"observed_reward":0,"unobserved_reward":1},{"RT":2743,"time": "2018-08-15 05:28:36pm", "schedule_type": "STATIC", "schedule_name": "random_2", "is_biased_choice":false,"side_choice": "RIGHT", "trial_number":5,"observed_reward":1,"unobserved_reward":0},{"RT":2521,"time": "2018-08-15 05:28:39pm", "schedule_type": "STATIC", "schedule_name": "random_2", "is_biased_choice":false,"side_choice": "RIGHT", "trial_number":6,"observed_reward":0,"unobserved_reward":0},{"RT":2647,"time": "2018-08-15 05:28:41pm", "schedule_type": "STATIC", "schedule_name": "random_2", "is_biased_choice":false,"side_choice": "RIGHT", "trial_number":7,"observed_reward":1,"unobserved_reward":1},{"RT":2649,"time": "2018-08-15 05:28:44pm", "schedule_type": "STATIC", "schedule_name": "random_2", "is_biased_choice":true,"side_choice": "LEFT", "trial_number":8,"observed_reward":0,"unobserved_reward":0},{"RT":2375,"time": "2018-08-15 05:28:47pm", "schedule_type": "STATIC", "schedule_name": "random_2", "is_biased_choice":false,"side_choice": "RIGHT", "trial_number":9,"observed_reward":1,"unobserved_reward":0},{"RT":3328,"time": "2018-08-15 05:28:50pm", "schedule_type": "STATIC", "schedule_name": "random_2", "is_biased_choice":true,"side_choice": "LEFT", "trial_number":10,"observed_reward":0,"unobserved_reward":0},{"RT":2777,"time": "2018-08-15 05:28:52pm", "schedule_type": "STATIC", "schedule_name": "random_2", "is_biased_choice":false,"side_choice": "RIGHT", "trial_number":11,"observed_reward":0,"unobserved_reward":0},{"RT":2215,"time": "2018-08-15 05:28:55pm", "schedule_type": "STATIC", "schedule_name": "random_2", "is_biased_choice":false,"side_choice": "RIGHT", "trial_number":12,"observed_reward":1,"unobserved_reward":0},{"RT":2312,"time": "2018-08-15 05:28:57pm", "schedule_type": "STATIC", "schedule_name": "random_2", "is_biased_choice":false,"side_choice": "RIGHT", "trial_number":13,"observed_reward":0,"unobserved_reward":0},{"RT":2584,"time": "2018-08-15 05:29:00pm", "schedule_type": "STATIC", "schedule_name": "random_2", "is_biased_choice":false,"side_choice": "RIGHT", "trial_number":14,"observed_reward":0,"unobserved_reward":1},{"RT":2433,"time": "2018-08-15 05:29:02pm", "schedule_type": "STATIC", "schedule_name": "random_2", "is_biased_choice":true,"side_choice": "LEFT", "trial_number":15,"observed_reward":0,"unobserved_reward":1},{"RT":2279,"time": "2018-08-15 05:29:04pm", "schedule_type": "STATIC", "schedule_name": "random_2", "is_biased_choice":false,"side_choice": "RIGHT", "trial_number":16,"observed_reward":0,"unobserved_reward":0},{"RT":2712,"time": "2018-08-15 05:29:07pm", "schedule_type": "STATIC", "schedule_name": "random_2", "is_biased_choice":true,"side_choice": "LEFT", "trial_number":17,"observed_reward":0,"unobserved_reward":0},{"RT":2482,"time": "2018-08-15 05:29:09pm", "schedule_type": "STATIC", "schedule_name": "random_2", "is_biased_choice":false,"side_choice": "RIGHT", "trial_number":18,"observed_reward":0,"unobserved_reward":1},{"RT":2496,"time": "2018-08-15 05:29:12pm", "schedule_type": "STATIC", "schedule_name": "random_2", "is_biased_choice":true,"side_choice": "LEFT", "trial_number":19,"observed_reward":0,"unobserved_reward":1},{"RT":2422,"time": "2018-08-15 05:29:14pm", "schedule_type": "STATIC", "schedule_name": "random_2", "is_biased_choice":true,"side_choice": "LEFT", "trial_number":20,"observed_reward":0,"unobserved_reward":0},{"RT":2688,"time": "2018-08-15 05:29:17pm", "schedule_type": "STATIC", "schedule_name": "random_2", "is_biased_choice":false,"side_choice": "RIGHT", "trial_number":21,"observed_reward":0,"unobserved_reward":0},{"RT":2512,"time": "2018-08-15 05:29:20pm", "schedule_type": "STATIC", "schedule_name": "random_2", "is_biased_choice":true,"side_choice": "LEFT", "trial_number":22,"observed_reward":0,"unobserved_reward":1},{"RT":6561,"time": "2018-08-15 05:29:26pm", "schedule_type": "STATIC", "schedule_name": "random_2", "is_biased_choice":false,"side_choice": "RIGHT", "trial_number":23,"observed_reward":0,"unobserved_reward":0},{"RT":6543,"time": "2018-08-15 05:29:33pm", "schedule_type": "STATIC", "schedule_name": "random_2", "is_biased_choice":false,"side_choice": "RIGHT", "trial_number":24,"observed_reward":0,"unobserved_reward":0},{"RT":2704,"time": "2018-08-15 05:29:35pm", "schedule_type": "STATIC", "schedule_name": "random_2", "is_biased_choice":true,"side_choice": "LEFT", "trial_number":25,"observed_reward":1,"unobserved_reward":1},{"RT":3161,"time": "2018-08-15 05:29:39pm", "schedule_type": "STATIC", "schedule_name": "random_2", "is_biased_choice":false,"side_choice": "RIGHT", "trial_number":26,"observed_reward":0,"unobserved_reward":1},{"RT":2567,"time": "2018-08-15 05:29:41pm", "schedule_type": "STATIC", "schedule_name": "random_2", "is_biased_choice":true,"side_choice": "LEFT", "trial_number":27,"observed_reward":0,"unobserved_reward":0},{"RT":2489,"time": "2018-08-15 05:29:44pm", "schedule_type": "STATIC", "schedule_name": "random_2", "is_biased_choice":false,"side_choice": "RIGHT", "trial_number":28,"observed_reward":0,"unobserved_reward":0},{"RT":2576,"time": "2018-08-15 05:29:46pm", "schedule_type": "STATIC", "schedule_name": "random_2", "is_biased_choice":true,"side_choice": "LEFT", "trial_number":29,"observed_reward":0,"unobserved_reward":1},{"RT":2472,"time": "2018-08-15 05:29:49pm", "schedule_type": "STATIC", "schedule_name": "random_2", "is_biased_choice":true,"side_choice": "LEFT", "trial_number":30,"observed_reward":1,"unobserved_reward":0},{"RT":2583,"time": "2018-08-15 05:29:51pm", "schedule_type": "STATIC", "schedule_name": "random_2", "is_biased_choice":false,"side_choice": "RIGHT", "trial_number":31,"observed_reward":0,"unobserved_reward":1},{"RT":2552,"time": "2018-08-15 05:29:54pm", "schedule_type": "STATIC", "schedule_name": "random_2", "is_biased_choice":true,"side_choice": "LEFT", "trial_number":32,"observed_reward":0,"unobserved_reward":0},{"RT":4225,"time": "2018-08-15 05:29:58pm", "schedule_type": "STATIC", "schedule_name": "random_2", "is_biased_choice":false,"side_choice": "RIGHT", "trial_number":33,"observed_reward":0,"unobserved_reward":0},{"RT":2457,"time": "2018-08-15 05:30:00pm", "schedule_type": "STATIC", "schedule_name": "random_2", "is_biased_choice":false,"side_choice": "RIGHT", "trial_number":34,"observed_reward":1,"unobserved_reward":0},{"RT":2439,"time": "2018-08-15 05:30:03pm", "schedule_type": "STATIC", "schedule_name": "random_2", "is_biased_choice":false,"side_choice": "RIGHT", "trial_number":35,"observed_reward":0,"unobserved_reward":0},{"RT":3312,"time": "2018-08-15 05:30:07pm", "schedule_type": "STATIC", "schedule_name": "random_2", "is_biased_choice":false,"side_choice": "RIGHT", "trial_number":36,"observed_reward":0,"unobserved_reward":0},{"RT":2704,"time": "2018-08-15 05:30:09pm", "schedule_type": "STATIC", "schedule_name": "random_2", "is_biased_choice":true,"side_choice": "LEFT", "trial_number":37,"observed_reward":1,"unobserved_reward":0},{"RT":2688,"time": "2018-08-15 05:30:12pm", "schedule_type": "STATIC", "schedule_name": "random_2", "is_biased_choice":false,"side_choice": "RIGHT", "trial_number":38,"observed_reward":1,"unobserved_reward":1},{"RT":2448,"time": "2018-08-15 05:30:14pm", "schedule_type": "STATIC", "schedule_name": "random_2", "is_biased_choice":true,"side_choice": "LEFT", "trial_number":39,"observed_reward":0,"unobserved_reward":0},{"RT":2256,"time": "2018-08-15 05:30:17pm", "schedule_type": "STATIC", "schedule_name": "random_2", "is_biased_choice":false,"side_choice": "RIGHT", "trial_number":40,"observed_reward":0,"unobserved_reward":1},{"RT":2264,"time": "2018-08-15 05:30:19pm", "schedule_type": "STATIC", "schedule_name": "random_2", "is_biased_choice":false,"side_choice": "RIGHT", "trial_number":41,"observed_reward":0,"unobserved_reward":0},{"RT":2207,"time": "2018-08-15 05:30:21pm", "schedule_type": "STATIC", "schedule_name": "random_2", "is_biased_choice":false,"side_choice": "RIGHT", "trial_number":42,"observed_reward":0,"unobserved_reward":0},{"RT":2576,"time": "2018-08-15 05:30:23pm", "schedule_type": "STATIC", "schedule_name": "random_2", "is_biased_choice":true,"side_choice": "LEFT", "trial_number":43,"observed_reward":0,"unobserved_reward":0},{"RT":2392,"time": "2018-08-15 05:30:26pm", "schedule_type": "STATIC", "schedule_name": "random_2", "is_biased_choice":false,"side_choice": "RIGHT", "trial_number":44,"observed_reward":0,"unobserved_reward":0},{"RT":2641,"time": "2018-08-15 05:30:28pm", "schedule_type": "STATIC", "schedule_name": "random_2", "is_biased_choice":true,"side_choice": "LEFT", "trial_number":45,"observed_reward":0,"unobserved_reward":0},{"RT":2640,"time": "2018-08-15 05:30:31pm", "schedule_type": "STATIC", "schedule_name": "random_2", "is_biased_choice":false,"side_choice": "RIGHT", "trial_number":46,"observed_reward":0,"unobserved_reward":1},{"RT":11384,"time": "2018-08-15 05:30:43pm", "schedule_type": "STATIC", "schedule_name": "random_2", "is_biased_choice":true,"side_choice": "LEFT", "trial_number":47,"observed_reward":1,"unobserved_reward":0},{"RT":2711,"time": "2018-08-15 05:30:45pm", "schedule_type": "STATIC", "schedule_name": "random_2", "is_biased_choice":true,"side_choice": "LEFT", "trial_number":48,"observed_reward":0,"unobserved_reward":0},{"RT":2872,"time": "2018-08-15 05:30:48pm", "schedule_type": "STATIC", "schedule_name": "random_2", "is_biased_choice":true,"side_choice": "LEFT", "trial_number":49,"observed_reward":0,"unobserved_reward":0},{"RT":3161,"time": "2018-08-15 05:30:51pm", "schedule_type": "STATIC", "schedule_name": "random_2", "is_biased_choice":false,"side_choice": "RIGHT", "trial_number":50,"observed_reward":0,"unobserved_reward":0},{"RT":2785,"time": "2018-08-15 05:30:54pm", "schedule_type": "STATIC", "schedule_name": "random_2", "is_biased_choice":false,"side_choice": "RIGHT", "trial_number":51,"observed_reward":0,"unobserved_reward":0},{"RT":2632,"time": "2018-08-15 05:30:57pm", "schedule_type": "STATIC", "schedule_name": "random_2", "is_biased_choice":true,"side_choice": "LEFT", "trial_number":52,"observed_reward":0,"unobserved_reward":1},{"RT":2398,"time": "2018-08-15 05:30:59pm", "schedule_type": "STATIC", "schedule_name": "random_2", "is_biased_choice":true,"side_choice": "LEFT", "trial_number":53,"observed_reward":0,"unobserved_reward":0},{"RT":2232,"time": "2018-08-15 05:31:01pm", "schedule_type": "STATIC", "schedule_name": "random_2", "is_biased_choice":false,"side_choice": "RIGHT", "trial_number":54,"observed_reward":1,"unobserved_reward":1},{"RT":2488,"time": "2018-08-15 05:31:04pm", "schedule_type": "STATIC", "schedule_name": "random_2", "is_biased_choice":true,"side_choice": "LEFT", "trial_number":55,"observed_reward":1,"unobserved_reward":0},{"RT":2329,"time": "2018-08-15 05:31:06pm", "schedule_type": "STATIC", "schedule_name": "random_2", "is_biased_choice":true,"side_choice": "LEFT", "trial_number":56,"observed_reward":0,"unobserved_reward":0},{"RT":2239,"time": "2018-08-15 05:31:08pm", "schedule_type": "STATIC", "schedule_name": "random_2", "is_biased_choice":true,"side_choice": "LEFT", "trial_number":57,"observed_reward":1,"unobserved_reward":1},{"RT":2201,"time": "2018-08-15 05:31:11pm", "schedule_type": "STATIC", "schedule_name": "random_2", "is_biased_choice":false,"side_choice": "RIGHT", "trial_number":58,"observed_reward":0,"unobserved_reward":0},{"RT":2176,"time": "2018-08-15 05:31:13pm", "schedule_type": "STATIC", "schedule_name": "random_2", "is_biased_choice":false,"side_choice": "RIGHT", "trial_number":59,"observed_reward":0,"unobserved_reward":0},{"RT":2200,"time": "2018-08-15 05:31:15pm", "schedule_type": "STATIC", "schedule_name": "random_2", "is_biased_choice":true,"side_choice": "LEFT", "trial_number":60,"observed_reward":1,"unobserved_reward":0},{"RT":2152,"time": "2018-08-15 05:31:17pm", "schedule_type": "STATIC", "schedule_name": "random_2", "is_biased_choice":true,"side_choice": "LEFT", "trial_number":61,"observed_reward":0,"unobserved_reward":0},{"RT":2183,"time": "2018-08-15 05:31:19pm", "schedule_type": "STATIC", "schedule_name": "random_2", "is_biased_choice":true,"side_choice": "LEFT", "trial_number":62,"observed_reward":0,"unobserved_reward":0},{"RT":2352,"time": "2018-08-15 05:31:22pm", "schedule_type": "STATIC", "schedule_name": "random_2", "is_biased_choice":false,"side_choice": "RIGHT", "trial_number":63,"observed_reward":0,"unobserved_reward":0},{"RT":2208,"time": "2018-08-15 05:31:24pm", "schedule_type": "STATIC", "schedule_name": "random_2", "is_biased_choice":true,"side_choice": "LEFT", "trial_number":64,"observed_reward":0,"unobserved_reward":0},{"RT":2168,"time": "2018-08-15 05:31:26pm", "schedule_type": "STATIC", "schedule_name": "random_2", "is_biased_choice":true,"side_choice": "LEFT", "trial_number":65,"observed_reward":0,"unobserved_reward":0},{"RT":2657,"time": "2018-08-15 05:31:29pm", "schedule_type": "STATIC", "schedule_name": "random_2", "is_biased_choice":false,"side_choice": "RIGHT", "trial_number":66,"observed_reward":0,"unobserved_reward":0},{"RT":2736,"time": "2018-08-15 05:31:31pm", "schedule_type": "STATIC", "schedule_name": "random_2", "is_biased_choice":true,"side_choice": "LEFT", "trial_number":67,"observed_reward":0,"unobserved_reward":0},{"RT":2695,"time": "2018-08-15 05:31:34pm", "schedule_type": "STATIC", "schedule_name": "random_2", "is_biased_choice":false,"side_choice": "RIGHT", "trial_number":68,"observed_reward":0,"unobserved_reward":0},{"RT":3608,"time": "2018-08-15 05:31:38pm", "schedule_type": "STATIC", "schedule_name": "random_2", "is_biased_choice":true,"side_choice": "LEFT", "trial_number":69,"observed_reward":1,"unobserved_reward":0},{"RT":3128,"time": "2018-08-15 05:31:41pm", "schedule_type": "STATIC", "schedule_name": "random_2", "is_biased_choice":true,"side_choice": "LEFT", "trial_number":70,"observed_reward":0,"unobserved_reward":1},{"RT":2304,"time": "2018-08-15 05:31:43pm", "schedule_type": "STATIC", "schedule_name": "random_2", "is_biased_choice":false,"side_choice": "RIGHT", "trial_number":71,"observed_reward":0,"unobserved_reward":1},{"RT":2265,"time": "2018-08-15 05:31:45pm", "schedule_type": "STATIC", "schedule_name": "random_2", "is_biased_choice":true,"side_choice": "LEFT", "trial_number":72,"observed_reward":0,"unobserved_reward":0},{"RT":2704,"time": "2018-08-15 05:31:48pm", "schedule_type": "STATIC", "schedule_name": "random_2", "is_biased_choice":false,"side_choice": "RIGHT", "trial_number":73,"observed_reward":0,"unobserved_reward":0},{"RT":2648,"time": "2018-08-15 05:31:51pm", "schedule_type": "STATIC", "schedule_name": "random_2", "is_biased_choice":true,"side_choice": "LEFT", "trial_number":74,"observed_reward":0,"unobserved_reward":1},{"RT":2231,"time": "2018-08-15 05:31:53pm", "schedule_type": "STATIC", "schedule_name": "random_2", "is_biased_choice":false,"side_choice": "RIGHT", "trial_number":75,"observed_reward":0,"unobserved_reward":0},{"RT":2336,"time": "2018-08-15 05:31:55pm", "schedule_type": "STATIC", "schedule_name": "random_2", "is_biased_choice":true,"side_choice": "LEFT", "trial_number":76,"observed_reward":0,"unobserved_reward":0},{"RT":2232,"time": "2018-08-15 05:31:58pm", "schedule_type": "STATIC", "schedule_name": "random_2", "is_biased_choice":false,"side_choice": "RIGHT", "trial_number":77,"observed_reward":0,"unobserved_reward":0},{"RT":3192,"time": "2018-08-15 05:32:01pm", "schedule_type": "STATIC", "schedule_name": "random_2", "is_biased_choice":true,"side_choice": "LEFT", "trial_number":78,"observed_reward":1,"unobserved_reward":0},{"RT":2697,"time": "2018-08-15 05:32:03pm", "schedule_type": "STATIC", "schedule_name": "random_2", "is_biased_choice":true,"side_choice": "LEFT", "trial_number":79,"observed_reward":0,"unobserved_reward":1},{"RT":2353,"time": "2018-08-15 05:32:06pm", "schedule_type": "STATIC", "schedule_name": "random_2", "is_biased_choice":true,"side_choice": "LEFT", "trial_number":80,"observed_reward":0,"unobserved_reward":0},{"RT":2287,"time": "2018-08-15 05:32:08pm", "schedule_type": "STATIC", "schedule_name": "random_2", "is_biased_choice":false,"side_choice": "RIGHT", "trial_number":81,"observed_reward":1,"unobserved_reward":1},{"RT":2431,"time": "2018-08-15 05:32:10pm", "schedule_type": "STATIC", "schedule_name": "random_2", "is_biased_choice":false,"side_choice": "RIGHT", "trial_number":82,"observed_reward":0,"unobserved_reward":0},{"RT":2825,"time": "2018-08-15 05:32:13pm", "schedule_type": "STATIC", "schedule_name": "random_2", "is_biased_choice":false,"side_choice": "RIGHT", "trial_number":83,"observed_reward":0,"unobserved_reward":1},{"RT":2176,"time": "2018-08-15 05:32:16pm", "schedule_type": "STATIC", "schedule_name": "random_2", "is_biased_choice":false,"side_choice": "RIGHT", "trial_number":84,"observed_reward":1,"unobserved_reward":0},{"RT":2200,"time": "2018-08-15 05:32:18pm", "schedule_type": "STATIC", "schedule_name": "random_2", "is_biased_choice":false,"side_choice": "RIGHT", "trial_number":85,"observed_reward":0,"unobserved_reward":1},{"RT":2233,"time": "2018-08-15 05:32:20pm", "schedule_type": "STATIC", "schedule_name": "random_2", "is_biased_choice":false,"side_choice": "RIGHT", "trial_number":86,"observed_reward":0,"unobserved_reward":0},{"RT":2176,"time": "2018-08-15 05:32:22pm", "schedule_type": "STATIC", "schedule_name": "random_2", "is_biased_choice":false,"side_choice": "RIGHT", "trial_number":87,"observed_reward":0,"unobserved_reward":0},{"RT":2295,"time": "2018-08-15 05:32:24pm", "schedule_type": "STATIC", "schedule_name": "random_2", "is_biased_choice":false,"side_choice": "RIGHT", "trial_number":88,"observed_reward":0,"unobserved_reward":0},{"RT":2520,"time": "2018-08-15 05:32:27pm", "schedule_type": "STATIC", "schedule_name": "random_2", "is_biased_choice":true,"side_choice": "LEFT", "trial_number":89,"observed_reward":0,"unobserved_reward":0},{"RT":2744,"time": "2018-08-15 05:32:30pm", "schedule_type": "STATIC", "schedule_name": "random_2", "is_biased_choice":false,"side_choice": "RIGHT", "trial_number":90,"observed_reward":0,"unobserved_reward":0},{"RT":2272,"time": "2018-08-15 05:32:32pm", "schedule_type": "STATIC", "schedule_name": "random_2", "is_biased_choice":false,"side_choice": "RIGHT", "trial_number":91,"observed_reward":1,"unobserved_reward":0},{"RT":2407,"time": "2018-08-15 05:32:34pm", "schedule_type": "STATIC", "schedule_name": "random_2", "is_biased_choice":false,"side_choice": "RIGHT", "trial_number":92,"observed_reward":0,"unobserved_reward":0},{"RT":2584,"time": "2018-08-15 05:32:37pm", "schedule_type": "STATIC", "schedule_name": "random_2", "is_biased_choice":true,"side_choice": "LEFT", "trial_number":93,"observed_reward":0,"unobserved_reward":1},{"RT":2266,"time": "2018-08-15 05:32:39pm", "schedule_type": "STATIC", "schedule_name": "random_2", "is_biased_choice":false,"side_choice": "RIGHT", "trial_number":94,"observed_reward":1,"unobserved_reward":0},{"RT":3160,"time": "2018-08-15 05:32:42pm", "schedule_type": "STATIC", "schedule_name": "random_2", "is_biased_choice":true,"side_choice": "LEFT", "trial_number":95,"observed_reward":1,"unobserved_reward":0},{"RT":2406,"time": "2018-08-15 05:32:45pm", "schedule_type": "STATIC", "schedule_name": "random_2", "is_biased_choice":true,"side_choice": "LEFT", "trial_number":96,"observed_reward":0,"unobserved_reward":0},{"RT":2224,"time": "2018-08-15 05:32:47pm", "schedule_type": "STATIC", "schedule_name": "random_2", "is_biased_choice":false,"side_choice": "RIGHT", "trial_number":97,"observed_reward":0,"unobserved_reward":0},{"RT":2856,"time": "2018-08-15 05:32:50pm", "schedule_type": "STATIC", "schedule_name": "random_2", "is_biased_choice":true,"side_choice": "LEFT", "trial_number":98,"observed_reward":1,"unobserved_reward":0},