[{"RT":10171,"time": "2018-08-15 03:28:00pm", "schedule_type": "STATIC", "schedule_name": "random_2", "is_biased_choice":false,"side_choice": "RIGHT", "trial_number":0,"observed_reward":1,"unobserved_reward":0},{"RT":24140,"time": "2018-08-15 03:28:24pm", "schedule_type": "STATIC", "schedule_name": "random_2", "is_biased_choice":true,"side_choice": "LEFT", "trial_number":1,"observed_reward":1,"unobserved_reward":0},{"RT":5655,"time": "2018-08-15 03:28:30pm", "schedule_type": "STATIC", "schedule_name": "random_2", "is_biased_choice":true,"side_choice": "LEFT", "trial_number":2,"observed_reward":0,"unobserved_reward":0},{"RT":3740,"time": "2018-08-15 03:28:33pm", "schedule_type": "STATIC", "schedule_name": "random_2", "is_biased_choice":true,"side_choice": "LEFT", "trial_number":3,"observed_reward":0,"unobserved_reward":0},{"RT":5218,"time": "2018-08-15 03:28:39pm", "schedule_type": "STATIC", "schedule_name": "random_2", "is_biased_choice":true,"side_choice": "LEFT", "trial_number":4,"observed_reward":0,"unobserved_reward":1},{"RT":3187,"time": "2018-08-15 03:28:42pm", "schedule_type": "STATIC", "schedule_name": "random_2", "is_biased_choice":false,"side_choice": "RIGHT", "trial_number":5,"observed_reward":1,"unobserved_reward":0},{"RT":3753,"time": "2018-08-15 03:28:46pm", "schedule_type": "STATIC", "schedule_name": "random_2", "is_biased_choice":false,"side_choice": "RIGHT", "trial_number":6,"observed_reward":0,"unobserved_reward":0},{"RT":4809,"time": "2018-08-15 03:28:50pm", "schedule_type": "STATIC", "schedule_name": "random_2", "is_biased_choice":true,"side_choice": "LEFT", "trial_number":7,"observed_reward":1,"unobserved_reward":1},{"RT":3241,"time": "2018-08-15 03:28:54pm", "schedule_type": "STATIC", "schedule_name": "random_2", "is_biased_choice":false,"side_choice": "RIGHT", "trial_number":8,"observed_reward":0,"unobserved_reward":0},{"RT":3056,"time": "2018-08-15 03:28:57pm", "schedule_type": "STATIC", "schedule_name": "random_2", "is_biased_choice":true,"side_choice": "LEFT", "trial_number":9,"observed_reward":0,"unobserved_reward":1},{"RT":3198,"time": "2018-08-15 03:29:00pm", "schedule_type": "STATIC", "schedule_name": "random_2", "is_biased_choice":false,"side_choice": "RIGHT", "trial_number":10,"observed_reward":0,"unobserved_reward":0},{"RT":16445,"time": "2018-08-15 03:29:17pm", "schedule_type": "STATIC", "schedule_name": "random_2", "is_biased_choice":true,"side_choice": "LEFT", "trial_number":11,"observed_reward":0,"unobserved_reward":0},{"RT":4409,"time": "2018-08-15 03:29:21pm", "schedule_type": "STATIC", "schedule_name": "random_2", "is_biased_choice":false,"side_choice": "RIGHT", "trial_number":12,"observed_reward":1,"unobserved_reward":0},{"RT":3143,"time": "2018-08-15 03:29:24pm", "schedule_type": "STATIC", "schedule_name": "random_2", "is_biased_choice":false,"side_choice": "RIGHT", "trial_number":13,"observed_reward":0,"unobserved_reward":0},{"RT":3340,"time": "2018-08-15 03:29:27pm", "schedule_type": "STATIC", "schedule_name": "random_2", "is_biased_choice":false,"side_choice": "RIGHT", "trial_number":14,"observed_reward":0,"unobserved_reward":1},{"RT":3923,"time": "2018-08-15 03:29:32pm", "schedule_type": "STATIC", "schedule_name": "random_2", "is_biased_choice":true,"side_choice": "LEFT", "trial_number":15,"observed_reward":0,"unobserved_reward":1},{"RT":8657,"time": "2018-08-15 03:29:40pm", "schedule_type": "STATIC", "schedule_name": "random_2", "is_biased_choice":true,"side_choice": "LEFT", "trial_number":16,"observed_reward":0,"unobserved_reward":0},{"RT":4462,"time": "2018-08-15 03:29:44pm", "schedule_type": "STATIC", "schedule_name": "random_2", "is_biased_choice":true,"side_choice": "LEFT", "trial_number":17,"observed_reward":0,"unobserved_reward":0},{"RT":2905,"time": "2018-08-15 03:29:47pm", "schedule_type": "STATIC", "schedule_name": "random_2", "is_biased_choice":false,"side_choice": "RIGHT", "trial_number":18,"observed_reward":0,"unobserved_reward":1},{"RT":3442,"time": "2018-08-15 03:29:51pm", "schedule_type": "STATIC", "schedule_name": "random_2", "is_biased_choice":false,"side_choice": "RIGHT", "trial_number":19,"observed_reward":1,"unobserved_reward":0},{"RT":5977,"time": "2018-08-15 03:29:57pm", "schedule_type": "STATIC", "schedule_name": "random_2", "is_biased_choice":false,"side_choice": "RIGHT", "trial_number":20,"observed_reward":0,"unobserved_reward":0},{"RT":3245,"time": "2018-08-15 03:30:00pm", "schedule_type": "STATIC", "schedule_name": "random_2", "is_biased_choice":true,"side_choice": "LEFT", "trial_number":21,"observed_reward":0,"unobserved_reward":0},{"RT":3494,"time": "2018-08-15 03:30:04pm", "schedule_type": "STATIC", "schedule_name": "random_2", "is_biased_choice":false,"side_choice": "RIGHT", "trial_number":22,"observed_reward":1,"unobserved_reward":0},{"RT":4558,"time": "2018-08-15 03:30:08pm", "schedule_type": "STATIC", "schedule_name": "random_2", "is_biased_choice":false,"side_choice": "RIGHT", "trial_number":23,"observed_reward":0,"unobserved_reward":0},{"RT":3341,"time": "2018-08-15 03:30:11pm", "schedule_type": "STATIC", "schedule_name": "random_2", "is_biased_choice":true,"side_choice": "LEFT", "trial_number":24,"observed_reward":0,"unobserved_reward":0},{"RT":2805,"time": "2018-08-15 03:30:14pm", "schedule_type": "STATIC", "schedule_name": "random_2", "is_biased_choice":true,"side_choice": "LEFT", "trial_number":25,"observed_reward":1,"unobserved_reward":1},{"RT":2690,"time": "2018-08-15 03:30:17pm", "schedule_type": "STATIC", "schedule_name": "random_2", "is_biased_choice":true,"side_choice": "LEFT", "trial_number":26,"observed_reward":1,"unobserved_reward":0},{"RT":2538,"time": "2018-08-15 03:30:19pm", "schedule_type": "STATIC", "schedule_name": "random_2", "is_biased_choice":false,"side_choice": "RIGHT", "trial_number":27,"observed_reward":0,"unobserved_reward":0},{"RT":2780,"time": "2018-08-15 03:30:22pm", "schedule_type": "STATIC", "schedule_name": "random_2", "is_biased_choice":true,"side_choice": "LEFT", "trial_number":28,"observed_reward":0,"unobserved_reward":0},{"RT":2726,"time": "2018-08-15 03:30:25pm", "schedule_type": "STATIC", "schedule_name": "random_2", "is_biased_choice":true,"side_choice": "LEFT", "trial_number":29,"observed_reward":0,"unobserved_reward":1},{"RT":2735,"time": "2018-08-15 03:30:27pm", "schedule_type": "STATIC", "schedule_name": "random_2", "is_biased_choice":false,"side_choice": "RIGHT", "trial_number":30,"observed_reward":0,"unobserved_reward":1},{"RT":2589,"time": "2018-08-15 03:30:30pm", "schedule_type": "STATIC", "schedule_name": "random_2", "is_biased_choice":false,"side_choice": "RIGHT", "trial_number":31,"observed_reward":0,"unobserved_reward":1},{"RT":2700,"time": "2018-08-15 03:30:33pm", "schedule_type": "STATIC", "schedule_name": "random_2", "is_biased_choice":true,"side_choice": "LEFT", "trial_number":32,"observed_reward":0,"unobserved_reward":0},{"RT":2488,"time": "2018-08-15 03:30:35pm", "schedule_type": "STATIC", "schedule_name": "random_2", "is_biased_choice":false,"side_choice": "RIGHT", "trial_number":33,"observed_reward":0,"unobserved_reward":0},{"RT":2404,"time": "2018-08-15 03:30:38pm", "schedule_type": "STATIC", "schedule_name": "random_2", "is_biased_choice":true,"side_choice": "LEFT", "trial_number":34,"observed_reward":0,"unobserved_reward":1},{"RT":2865,"time": "2018-08-15 03:30:40pm", "schedule_type": "STATIC", "schedule_name": "random_2", "is_biased_choice":true,"side_choice": "LEFT", "trial_number":35,"observed_reward":0,"unobserved_reward":0},{"RT":2551,"time": "2018-08-15 03:30:43pm", "schedule_type": "STATIC", "schedule_name": "random_2", "is_biased_choice":false,"side_choice": "RIGHT", "trial_number":36,"observed_reward":0,"unobserved_reward":0},{"RT":2506,"time": "2018-08-15 03:30:46pm", "schedule_type": "STATIC", "schedule_name": "random_2", "is_biased_choice":false,"side_choice": "RIGHT", "trial_number":37,"observed_reward":0,"unobserved_reward":1},{"RT":2474,"time": "2018-08-15 03:30:48pm", "schedule_type": "STATIC", "schedule_name": "random_2", "is_biased_choice":false,"side_choice": "RIGHT", "trial_number":38,"observed_reward":1,"unobserved_reward":1},{"RT":2600,"time": "2018-08-15 03:30:51pm", "schedule_type": "STATIC", "schedule_name": "random_2", "is_biased_choice":false,"side_choice": "RIGHT", "trial_number":39,"observed_reward":0,"unobserved_reward":0},{"RT":2672,"time": "2018-08-15 03:30:53pm", "schedule_type": "STATIC", "schedule_name": "random_2", "is_biased_choice":true,"side_choice": "LEFT", "trial_number":40,"observed_reward":1,"unobserved_reward":0},{"RT":3028,"time": "2018-08-15 03:30:56pm", "schedule_type": "STATIC", "schedule_name": "random_2", "is_biased_choice":true,"side_choice": "LEFT", "trial_number":41,"observed_reward":0,"unobserved_reward":0},{"RT":2516,"time": "2018-08-15 03:30:59pm", "schedule_type": "STATIC", "schedule_name": "random_2", "is_biased_choice":false,"side_choice": "RIGHT", "trial_number":42,"observed_reward":0,"unobserved_reward":0},{"RT":2332,"time": "2018-08-15 03:31:01pm", "schedule_type": "STATIC", "schedule_name": "random_2", "is_biased_choice":true,"side_choice": "LEFT", "trial_number":43,"observed_reward":0,"unobserved_reward":0},{"RT":2892,"time": "2018-08-15 03:31:04pm", "schedule_type": "STATIC", "schedule_name": "random_2", "is_biased_choice":true,"side_choice": "LEFT", "trial_number":44,"observed_reward":0,"unobserved_reward":0},{"RT":2454,"time": "2018-08-15 03:31:06pm", "schedule_type": "STATIC", "schedule_name": "random_2", "is_biased_choice":false,"side_choice": "RIGHT", "trial_number":45,"observed_reward":0,"unobserved_reward":0},{"RT":2475,"time": "2018-08-15 03:31:09pm", "schedule_type": "STATIC", "schedule_name": "random_2", "is_biased_choice":false,"side_choice": "RIGHT", "trial_number":46,"observed_reward":0,"unobserved_reward":1},{"RT":2717,"time": "2018-08-15 03:31:12pm", "schedule_type": "STATIC", "schedule_name": "random_2", "is_biased_choice":true,"side_choice": "LEFT", "trial_number":47,"observed_reward":1,"unobserved_reward":0},{"RT":2604,"time": "2018-08-15 03:31:14pm", "schedule_type": "STATIC", "schedule_name": "random_2", "is_biased_choice":true,"side_choice": "LEFT", "trial_number":48,"observed_reward":0,"unobserved_reward":0},{"RT":2440,"time": "2018-08-15 03:31:17pm", "schedule_type": "STATIC", "schedule_name": "random_2", "is_biased_choice":false,"side_choice": "RIGHT", "trial_number":49,"observed_reward":0,"unobserved_reward":0},{"RT":3123,"time": "2018-08-15 03:31:20pm", "schedule_type": "STATIC", "schedule_name": "random_2", "is_biased_choice":false,"side_choice": "RIGHT", "trial_number":50,"observed_reward":0,"unobserved_reward":0},{"RT":2586,"time": "2018-08-15 03:31:22pm", "schedule_type": "STATIC", "schedule_name": "random_2", "is_biased_choice":true,"side_choice": "LEFT", "trial_number":51,"observed_reward":0,"unobserved_reward":0},{"RT":3260,"time": "2018-08-15 03:31:26pm", "schedule_type": "STATIC", "schedule_name": "random_2", "is_biased_choice":true,"side_choice": "LEFT", "trial_number":52,"observed_reward":0,"unobserved_reward":1},{"RT":2609,"time": "2018-08-15 03:31:28pm", "schedule_type": "STATIC", "schedule_name": "random_2", "is_biased_choice":false,"side_choice": "RIGHT", "trial_number":53,"observed_reward":0,"unobserved_reward":0},{"RT":2788,"time": "2018-08-15 03:31:31pm", "schedule_type": "STATIC", "schedule_name": "random_2", "is_biased_choice":true,"side_choice": "LEFT", "trial_number":54,"observed_reward":1,"unobserved_reward":1},{"RT":2602,"time": "2018-08-15 03:31:34pm", "schedule_type": "STATIC", "schedule_name": "random_2", "is_biased_choice":true,"side_choice": "LEFT", "trial_number":55,"observed_reward":1,"unobserved_reward":0},{"RT":2609,"time": "2018-08-15 03:31:36pm", "schedule_type": "STATIC", "schedule_name": "random_2", "is_biased_choice":false,"side_choice": "RIGHT", "trial_number":56,"observed_reward":0,"unobserved_reward":0},{"RT":2579,"time": "2018-08-15 03:31:39pm", "schedule_type": "STATIC", "schedule_name": "random_2", "is_biased_choice":true,"side_choice": "LEFT", "trial_number":57,"observed_reward":1,"unobserved_reward":1},{"RT":2496,"time": "2018-08-15 03:31:41pm", "schedule_type": "STATIC", "schedule_name": "random_2", "is_biased_choice":true,"side_choice": "LEFT", "trial_number":58,"observed_reward":0,"unobserved_reward":0},{"RT":2481,"time": "2018-08-15 03:31:44pm", "schedule_type": "STATIC", "schedule_name": "random_2", "is_biased_choice":false,"side_choice": "RIGHT", "trial_number":59,"observed_reward":0,"unobserved_reward":0},{"RT":2466,"time": "2018-08-15 03:31:46pm", "schedule_type": "STATIC", "schedule_name": "random_2", "is_biased_choice":true,"side_choice": "LEFT", "trial_number":60,"observed_reward":1,"unobserved_reward":0},{"RT":2780,"time": "2018-08-15 03:31:49pm", "schedule_type": "STATIC", "schedule_name": "random_2", "is_biased_choice":true,"side_choice": "LEFT", "trial_number":61,"observed_reward":0,"unobserved_reward":0},{"RT":2406,"time": "2018-08-15 03:31:51pm", "schedule_type": "STATIC", "schedule_name": "random_2", "is_biased_choice":false,"side_choice": "RIGHT", "trial_number":62,"observed_reward":0,"unobserved_reward":0},{"RT":2364,"time": "2018-08-15 03:31:54pm", "schedule_type": "STATIC", "schedule_name": "random_2", "is_biased_choice":false,"side_choice": "RIGHT", "trial_number":63,"observed_reward":0,"unobserved_reward":0},{"RT":2534,"time": "2018-08-15 03:31:56pm", "schedule_type": "STATIC", "schedule_name": "random_2", "is_biased_choice":true,"side_choice": "LEFT", "trial_number":64,"observed_reward":0,"unobserved_reward":0},{"RT":2518,"time": "2018-08-15 03:31:59pm", "schedule_type": "STATIC", "schedule_name": "random_2", "is_biased_choice":true,"side_choice": "LEFT", "trial_number":65,"observed_reward":0,"unobserved_reward":0},{"RT":2576,"time": "2018-08-15 03:32:02pm", "schedule_type": "STATIC", "schedule_name": "random_2", "is_biased_choice":false,"side_choice": "RIGHT", "trial_number":66,"observed_reward":0,"unobserved_reward":0},{"RT":2830,"time": "2018-08-15 03:32:04pm", "schedule_type": "STATIC", "schedule_name": "random_2", "is_biased_choice":true,"side_choice": "LEFT", "trial_number":67,"observed_reward":0,"unobserved_reward":0},{"RT":2714,"time": "2018-08-15 03:32:07pm", "schedule_type": "STATIC", "schedule_name": "random_2", "is_biased_choice":true,"side_choice": "LEFT", "trial_number":68,"observed_reward":0,"unobserved_reward":0},{"RT":2568,"time": "2018-08-15 03:32:10pm", "schedule_type": "STATIC", "schedule_name": "random_2", "is_biased_choice":true,"side_choice": "LEFT", "trial_number":69,"observed_reward":1,"unobserved_reward":0},{"RT":2710,"time": "2018-08-15 03:32:12pm", "schedule_type": "STATIC", "schedule_name": "random_2", "is_biased_choice":true,"side_choice": "LEFT", "trial_number":70,"observed_reward":0,"unobserved_reward":1},{"RT":2710,"time": "2018-08-15 03:32:15pm", "schedule_type": "STATIC", "schedule_name": "random_2", "is_biased_choice":true,"side_choice": "LEFT", "trial_number":71,"observed_reward":1,"unobserved_reward":0},{"RT":2901,"time": "2018-08-15 03:32:18pm", "schedule_type": "STATIC", "schedule_name": "random_2", "is_biased_choice":true,"side_choice": "LEFT", "trial_number":72,"observed_reward":0,"unobserved_reward":0},{"RT":2550,"time": "2018-08-15 03:32:20pm", "schedule_type": "STATIC", "schedule_name": "random_2", "is_biased_choice":false,"side_choice": "RIGHT", "trial_number":73,"observed_reward":0,"unobserved_reward":0},{"RT":2550,"time": "2018-08-15 03:32:23pm", "schedule_type": "STATIC", "schedule_name": "random_2", "is_biased_choice":false,"side_choice": "RIGHT", "trial_number":74,"observed_reward":1,"unobserved_reward":0},{"RT":2919,"time": "2018-08-15 03:32:26pm", "schedule_type": "STATIC", "schedule_name": "random_2", "is_biased_choice":false,"side_choice": "RIGHT", "trial_number":75,"observed_reward":0,"unobserved_reward":0},{"RT":2485,"time": "2018-08-15 03:32:28pm", "schedule_type": "STATIC", "schedule_name": "random_2", "is_biased_choice":true,"side_choice": "LEFT", "trial_number":76,"observed_reward":0,"unobserved_reward":0},{"RT":2443,"time": "2018-08-15 03:32:31pm", "schedule_type": "STATIC", "schedule_name": "random_2", "is_biased_choice":true,"side_choice": "LEFT", "trial_number":77,"observed_reward":0,"unobserved_reward":0},{"RT":2547,"time": "2018-08-15 03:32:33pm", "schedule_type": "STATIC", "schedule_name": "random_2", "is_biased_choice":true,"side_choice": "LEFT", "trial_number":78,"observed_reward":1,"unobserved_reward":0},{"RT":3352,"time": "2018-08-15 03:32:37pm", "schedule_type": "STATIC", "schedule_name": "random_2", "is_biased_choice":true,"side_choice": "LEFT", "trial_number":79,"observed_reward":0,"unobserved_reward":1},{"RT":2939,"time": "2018-08-15 03:32:40pm", "schedule_type": "STATIC", "schedule_name": "random_2", "is_biased_choice":false,"side_choice": "RIGHT", "trial_number":80,"observed_reward":0,"unobserved_reward":0},{"RT":2906,"time": "2018-08-15 03:32:43pm", "schedule_type": "STATIC", "schedule_name": "random_2", "is_biased_choice":false,"side_choice": "RIGHT", "trial_number":81,"observed_reward":1,"unobserved_reward":1},{"RT":2529,"time": "2018-08-15 03:32:45pm", "schedule_type": "STATIC", "schedule_name": "random_2", "is_biased_choice":false,"side_choice": "RIGHT", "trial_number":82,"observed_reward":0,"unobserved_reward":0},{"RT":3051,"time": "2018-08-15 03:32:48pm", "schedule_type": "STATIC", "schedule_name": "random_2", "is_biased_choice":true,"side_choice": "LEFT", "trial_number":83,"observed_reward":1,"unobserved_reward":0},{"RT":3445,"time": "2018-08-15 03:32:52pm", "schedule_type": "STATIC", "schedule_name": "random_2", "is_biased_choice":true,"side_choice": "LEFT", "trial_number":84,"observed_reward":0,"unobserved_reward":1},{"RT":3059,"time": "2018-08-15 03:32:55pm", "schedule_type": "STATIC", "schedule_name": "random_2", "is_biased_choice":false,"side_choice": "RIGHT", "trial_number":85,"observed_reward":0,"unobserved_reward":1},{"RT":2520,"time": "2018-08-15 03:32:57pm", "schedule_type": "STATIC", "schedule_name": "random_2", "is_biased_choice":true,"side_choice": "LEFT", "trial_number":86,"observed_reward":0,"unobserved_reward":0},{"RT":2555,"time": "2018-08-15 03:33:00pm", "schedule_type": "STATIC", "schedule_name": "random_2", "is_biased_choice":true,"side_choice": "LEFT", "trial_number":87,"observed_reward":0,"unobserved_reward":0},{"RT":3038,"time": "2018-08-15 03:33:03pm", "schedule_type": "STATIC", "schedule_name": "random_2", "is_biased_choice":false,"side_choice": "RIGHT", "trial_number":88,"observed_reward":0,"unobserved_reward":0},{"RT":2686,"time": "2018-08-15 03:33:06pm", "schedule_type": "STATIC", "schedule_name": "random_2", "is_biased_choice":false,"side_choice": "RIGHT", "trial_number":89,"observed_reward":0,"unobserved_reward":0},{"RT":2510,"time": "2018-08-15 03:33:08pm", "schedule_type": "STATIC", "schedule_name": "random_2", "is_biased_choice":false,"side_choice": "RIGHT", "trial_number":90,"observed_reward":0,"unobserved_reward":0},{"RT":2414,"time": "2018-08-15 03:33:10pm", "schedule_type": "STATIC", "schedule_name": "random_2", "is_biased_choice":true,"side_choice": "LEFT", "trial_number":91,"observed_reward":0,"unobserved_reward":1},{"RT":2478,"time": "2018-08-15 03:33:13pm", "schedule_type": "STATIC", "schedule_name": "random_2", "is_biased_choice":true,"side_choice": "LEFT", "trial_number":92,"observed_reward":0,"unobserved_reward":0},{"RT":2450,"time": "2018-08-15 03:33:15pm", "schedule_type": "STATIC", "schedule_name": "random_2", "is_biased_choice":false,"side_choice": "RIGHT", "trial_number":93,"observed_reward":1,"unobserved_reward":0},{"RT":2528,"time": "2018-08-15 03:33:18pm", "schedule_type": "STATIC", "schedule_name": "random_2", "is_biased_choice":false,"side_choice": "RIGHT", "trial_number":94,"observed_reward":1,"unobserved_reward":0},{"RT":2484,"time": "2018-08-15 03:33:20pm", "schedule_type": "STATIC", "schedule_name": "random_2", "is_biased_choice":false,"side_choice": "RIGHT", "trial_number":95,"observed_reward":0,"unobserved_reward":1},{"RT":2682,"time": "2018-08-15 03:33:23pm", "schedule_type": "STATIC", "schedule_name": "random_2", "is_biased_choice":true,"side_choice": "LEFT", "trial_number":96,"observed_reward":0,"unobserved_reward":0},{"RT":2716,"time": "2018-08-15 03:33:26pm", "schedule_type": "STATIC", "schedule_name": "random_2", "is_biased_choice":false,"side_choice": "RIGHT", "trial_number":97,"observed_reward":0,"unobserved_reward":0},{"RT":2538,"time": "2018-08-15 03:33:28pm", "schedule_type": "STATIC", "schedule_name": "random_2", "is_biased_choice":true,"side_choice": "LEFT", "trial_number":98,"observed_reward":1,"unobserved_reward":0},