[{"RT":9251,"time": "2018-08-15 01:45:48pm", "schedule_type": "STATIC", "schedule_name": "random_5", "is_biased_choice":false,"side_choice": "LEFT", "trial_number":0,"observed_reward":0,"unobserved_reward":0},{"RT":5407,"time": "2018-08-15 01:45:54pm", "schedule_type": "STATIC", "schedule_name": "random_5", "is_biased_choice":false,"side_choice": "LEFT", "trial_number":1,"observed_reward":1,"unobserved_reward":0},{"RT":4859,"time": "2018-08-15 01:45:58pm", "schedule_type": "STATIC", "schedule_name": "random_5", "is_biased_choice":true,"side_choice": "RIGHT", "trial_number":2,"observed_reward":0,"unobserved_reward":0},{"RT":4266,"time": "2018-08-15 01:46:03pm", "schedule_type": "STATIC", "schedule_name": "random_5", "is_biased_choice":false,"side_choice": "LEFT", "trial_number":3,"observed_reward":0,"unobserved_reward":0},{"RT":3452,"time": "2018-08-15 01:46:06pm", "schedule_type": "STATIC", "schedule_name": "random_5", "is_biased_choice":true,"side_choice": "RIGHT", "trial_number":4,"observed_reward":0,"unobserved_reward":1},{"RT":3411,"time": "2018-08-15 01:46:10pm", "schedule_type": "STATIC", "schedule_name": "random_5", "is_biased_choice":true,"side_choice": "RIGHT", "trial_number":5,"observed_reward":0,"unobserved_reward":1},{"RT":3219,"time": "2018-08-15 01:46:13pm", "schedule_type": "STATIC", "schedule_name": "random_5", "is_biased_choice":false,"side_choice": "LEFT", "trial_number":6,"observed_reward":0,"unobserved_reward":1},{"RT":3656,"time": "2018-08-15 01:46:16pm", "schedule_type": "STATIC", "schedule_name": "random_5", "is_biased_choice":true,"side_choice": "RIGHT", "trial_number":7,"observed_reward":0,"unobserved_reward":0},{"RT":3406,"time": "2018-08-15 01:46:20pm", "schedule_type": "STATIC", "schedule_name": "random_5", "is_biased_choice":true,"side_choice": "RIGHT", "trial_number":8,"observed_reward":1,"unobserved_reward":1},{"RT":4081,"time": "2018-08-15 01:46:25pm", "schedule_type": "STATIC", "schedule_name": "random_5", "is_biased_choice":false,"side_choice": "LEFT", "trial_number":9,"observed_reward":0,"unobserved_reward":1},{"RT":3761,"time": "2018-08-15 01:46:28pm", "schedule_type": "STATIC", "schedule_name": "random_5", "is_biased_choice":true,"side_choice": "RIGHT", "trial_number":10,"observed_reward":1,"unobserved_reward":1},{"RT":3753,"time": "2018-08-15 01:46:31pm", "schedule_type": "STATIC", "schedule_name": "random_5", "is_biased_choice":false,"side_choice": "LEFT", "trial_number":11,"observed_reward":0,"unobserved_reward":0},{"RT":3281,"time": "2018-08-15 01:46:35pm", "schedule_type": "STATIC", "schedule_name": "random_5", "is_biased_choice":false,"side_choice": "LEFT", "trial_number":12,"observed_reward":0,"unobserved_reward":0},{"RT":3657,"time": "2018-08-15 01:46:38pm", "schedule_type": "STATIC", "schedule_name": "random_5", "is_biased_choice":false,"side_choice": "LEFT", "trial_number":13,"observed_reward":0,"unobserved_reward":0},{"RT":3602,"time": "2018-08-15 01:46:42pm", "schedule_type": "STATIC", "schedule_name": "random_5", "is_biased_choice":false,"side_choice": "LEFT", "trial_number":14,"observed_reward":0,"unobserved_reward":0},{"RT":3638,"time": "2018-08-15 01:46:46pm", "schedule_type": "STATIC", "schedule_name": "random_5", "is_biased_choice":true,"side_choice": "RIGHT", "trial_number":15,"observed_reward":0,"unobserved_reward":0},{"RT":3282,"time": "2018-08-15 01:46:49pm", "schedule_type": "STATIC", "schedule_name": "random_5", "is_biased_choice":false,"side_choice": "LEFT", "trial_number":16,"observed_reward":0,"unobserved_reward":0},{"RT":3781,"time": "2018-08-15 01:46:53pm", "schedule_type": "STATIC", "schedule_name": "random_5", "is_biased_choice":true,"side_choice": "RIGHT", "trial_number":17,"observed_reward":1,"unobserved_reward":0},{"RT":3758,"time": "2018-08-15 01:46:56pm", "schedule_type": "STATIC", "schedule_name": "random_5", "is_biased_choice":true,"side_choice": "RIGHT", "trial_number":18,"observed_reward":0,"unobserved_reward":0},{"RT":2930,"time": "2018-08-15 01:46:59pm", "schedule_type": "STATIC", "schedule_name": "random_5", "is_biased_choice":true,"side_choice": "RIGHT", "trial_number":19,"observed_reward":0,"unobserved_reward":0},{"RT":3188,"time": "2018-08-15 01:47:03pm", "schedule_type": "STATIC", "schedule_name": "random_5", "is_biased_choice":true,"side_choice": "RIGHT", "trial_number":20,"observed_reward":0,"unobserved_reward":1},{"RT":3564,"time": "2018-08-15 01:47:06pm", "schedule_type": "STATIC", "schedule_name": "random_5", "is_biased_choice":false,"side_choice": "LEFT", "trial_number":21,"observed_reward":1,"unobserved_reward":0},{"RT":4328,"time": "2018-08-15 01:47:10pm", "schedule_type": "STATIC", "schedule_name": "random_5", "is_biased_choice":false,"side_choice": "LEFT", "trial_number":22,"observed_reward":0,"unobserved_reward":0},{"RT":3359,"time": "2018-08-15 01:47:14pm", "schedule_type": "STATIC", "schedule_name": "random_5", "is_biased_choice":false,"side_choice": "LEFT", "trial_number":23,"observed_reward":1,"unobserved_reward":0},{"RT":4082,"time": "2018-08-15 01:47:18pm", "schedule_type": "STATIC", "schedule_name": "random_5", "is_biased_choice":false,"side_choice": "LEFT", "trial_number":24,"observed_reward":0,"unobserved_reward":0},{"RT":3564,"time": "2018-08-15 01:47:21pm", "schedule_type": "STATIC", "schedule_name": "random_5", "is_biased_choice":true,"side_choice": "RIGHT", "trial_number":25,"observed_reward":0,"unobserved_reward":0},{"RT":3483,"time": "2018-08-15 01:47:25pm", "schedule_type": "STATIC", "schedule_name": "random_5", "is_biased_choice":true,"side_choice": "RIGHT", "trial_number":26,"observed_reward":0,"unobserved_reward":0},{"RT":3299,"time": "2018-08-15 01:47:29pm", "schedule_type": "STATIC", "schedule_name": "random_5", "is_biased_choice":true,"side_choice": "RIGHT", "trial_number":27,"observed_reward":1,"unobserved_reward":1},{"RT":4201,"time": "2018-08-15 01:47:33pm", "schedule_type": "STATIC", "schedule_name": "random_5", "is_biased_choice":true,"side_choice": "RIGHT", "trial_number":28,"observed_reward":0,"unobserved_reward":0},{"RT":3563,"time": "2018-08-15 01:47:36pm", "schedule_type": "STATIC", "schedule_name": "random_5", "is_biased_choice":false,"side_choice": "LEFT", "trial_number":29,"observed_reward":0,"unobserved_reward":0},{"RT":3221,"time": "2018-08-15 01:47:39pm", "schedule_type": "STATIC", "schedule_name": "random_5", "is_biased_choice":true,"side_choice": "RIGHT", "trial_number":30,"observed_reward":0,"unobserved_reward":0},{"RT":3607,"time": "2018-08-15 01:47:43pm", "schedule_type": "STATIC", "schedule_name": "random_5", "is_biased_choice":true,"side_choice": "RIGHT", "trial_number":31,"observed_reward":0,"unobserved_reward":0},{"RT":3735,"time": "2018-08-15 01:47:47pm", "schedule_type": "STATIC", "schedule_name": "random_5", "is_biased_choice":true,"side_choice": "RIGHT", "trial_number":32,"observed_reward":1,"unobserved_reward":0},{"RT":4397,"time": "2018-08-15 01:47:51pm", "schedule_type": "STATIC", "schedule_name": "random_5", "is_biased_choice":false,"side_choice": "LEFT", "trial_number":33,"observed_reward":1,"unobserved_reward":0},{"RT":12091,"time": "2018-08-15 01:48:03pm", "schedule_type": "STATIC", "schedule_name": "random_5", "is_biased_choice":true,"side_choice": "RIGHT", "trial_number":34,"observed_reward":0,"unobserved_reward":0},{"RT":3049,"time": "2018-08-15 01:48:06pm", "schedule_type": "STATIC", "schedule_name": "random_5", "is_biased_choice":true,"side_choice": "RIGHT", "trial_number":35,"observed_reward":1,"unobserved_reward":0},{"RT":5371,"time": "2018-08-15 01:48:11pm", "schedule_type": "STATIC", "schedule_name": "random_5", "is_biased_choice":false,"side_choice": "LEFT", "trial_number":36,"observed_reward":0,"unobserved_reward":1},{"RT":3061,"time": "2018-08-15 01:48:14pm", "schedule_type": "STATIC", "schedule_name": "random_5", "is_biased_choice":true,"side_choice": "RIGHT", "trial_number":37,"observed_reward":1,"unobserved_reward":0},{"RT":3228,"time": "2018-08-15 01:48:18pm", "schedule_type": "STATIC", "schedule_name": "random_5", "is_biased_choice":false,"side_choice": "LEFT", "trial_number":38,"observed_reward":0,"unobserved_reward":0},{"RT":3078,"time": "2018-08-15 01:48:21pm", "schedule_type": "STATIC", "schedule_name": "random_5", "is_biased_choice":false,"side_choice": "LEFT", "trial_number":39,"observed_reward":0,"unobserved_reward":0},{"RT":2976,"time": "2018-08-15 01:48:24pm", "schedule_type": "STATIC", "schedule_name": "random_5", "is_biased_choice":false,"side_choice": "LEFT", "trial_number":40,"observed_reward":1,"unobserved_reward":1},{"RT":3312,"time": "2018-08-15 01:48:28pm", "schedule_type": "STATIC", "schedule_name": "random_5", "is_biased_choice":false,"side_choice": "LEFT", "trial_number":41,"observed_reward":1,"unobserved_reward":1},{"RT":3148,"time": "2018-08-15 01:48:30pm", "schedule_type": "STATIC", "schedule_name": "random_5", "is_biased_choice":false,"side_choice": "LEFT", "trial_number":42,"observed_reward":0,"unobserved_reward":0},{"RT":3108,"time": "2018-08-15 01:48:33pm", "schedule_type": "STATIC", "schedule_name": "random_5", "is_biased_choice":false,"side_choice": "LEFT", "trial_number":43,"observed_reward":1,"unobserved_reward":0},{"RT":3376,"time": "2018-08-15 01:48:37pm", "schedule_type": "STATIC", "schedule_name": "random_5", "is_biased_choice":false,"side_choice": "LEFT", "trial_number":44,"observed_reward":0,"unobserved_reward":1},{"RT":3296,"time": "2018-08-15 01:48:40pm", "schedule_type": "STATIC", "schedule_name": "random_5", "is_biased_choice":false,"side_choice": "LEFT", "trial_number":45,"observed_reward":0,"unobserved_reward":0},{"RT":3000,"time": "2018-08-15 01:48:43pm", "schedule_type": "STATIC", "schedule_name": "random_5", "is_biased_choice":false,"side_choice": "LEFT", "trial_number":46,"observed_reward":0,"unobserved_reward":0},{"RT":3189,"time": "2018-08-15 01:48:46pm", "schedule_type": "STATIC", "schedule_name": "random_5", "is_biased_choice":false,"side_choice": "LEFT", "trial_number":47,"observed_reward":1,"unobserved_reward":1},{"RT":4281,"time": "2018-08-15 01:48:51pm", "schedule_type": "STATIC", "schedule_name": "random_5", "is_biased_choice":true,"side_choice": "RIGHT", "trial_number":48,"observed_reward":0,"unobserved_reward":0},{"RT":3249,"time": "2018-08-15 01:48:54pm", "schedule_type": "STATIC", "schedule_name": "random_5", "is_biased_choice":true,"side_choice": "RIGHT", "trial_number":49,"observed_reward":0,"unobserved_reward":1},{"RT":3535,"time": "2018-08-15 01:48:57pm", "schedule_type": "STATIC", "schedule_name": "random_5", "is_biased_choice":false,"side_choice": "LEFT", "trial_number":50,"observed_reward":0,"unobserved_reward":0},{"RT":3219,"time": "2018-08-15 01:49:01pm", "schedule_type": "STATIC", "schedule_name": "random_5", "is_biased_choice":true,"side_choice": "RIGHT", "trial_number":51,"observed_reward":0,"unobserved_reward":0},{"RT":3406,"time": "2018-08-15 01:49:04pm", "schedule_type": "STATIC", "schedule_name": "random_5", "is_biased_choice":false,"side_choice": "LEFT", "trial_number":52,"observed_reward":0,"unobserved_reward":1},{"RT":3219,"time": "2018-08-15 01:49:07pm", "schedule_type": "STATIC", "schedule_name": "random_5", "is_biased_choice":true,"side_choice": "RIGHT", "trial_number":53,"observed_reward":0,"unobserved_reward":1},{"RT":3829,"time": "2018-08-15 01:49:11pm", "schedule_type": "STATIC", "schedule_name": "random_5", "is_biased_choice":false,"side_choice": "LEFT", "trial_number":54,"observed_reward":0,"unobserved_reward":0},{"RT":3156,"time": "2018-08-15 01:49:14pm", "schedule_type": "STATIC", "schedule_name": "random_5", "is_biased_choice":false,"side_choice": "LEFT", "trial_number":55,"observed_reward":1,"unobserved_reward":0},{"RT":3422,"time": "2018-08-15 01:49:18pm", "schedule_type": "STATIC", "schedule_name": "random_5", "is_biased_choice":true,"side_choice": "RIGHT", "trial_number":56,"observed_reward":0,"unobserved_reward":0},{"RT":3314,"time": "2018-08-15 01:49:21pm", "schedule_type": "STATIC", "schedule_name": "random_5", "is_biased_choice":true,"side_choice": "RIGHT", "trial_number":57,"observed_reward":1,"unobserved_reward":0},{"RT":3374,"time": "2018-08-15 01:49:24pm", "schedule_type": "STATIC", "schedule_name": "random_5", "is_biased_choice":false,"side_choice": "LEFT", "trial_number":58,"observed_reward":0,"unobserved_reward":0},{"RT":3032,"time": "2018-08-15 01:49:29pm", "schedule_type": "STATIC", "schedule_name": "random_5", "is_biased_choice":true,"side_choice": "RIGHT", "trial_number":59,"observed_reward":0,"unobserved_reward":0},{"RT":3993,"time": "2018-08-15 01:49:31pm", "schedule_type": "STATIC", "schedule_name": "random_5", "is_biased_choice":true,"side_choice": "RIGHT", "trial_number":60,"observed_reward":0,"unobserved_reward":1},{"RT":3376,"time": "2018-08-15 01:49:35pm", "schedule_type": "STATIC", "schedule_name": "random_5", "is_biased_choice":true,"side_choice": "RIGHT", "trial_number":61,"observed_reward":0,"unobserved_reward":0},{"RT":3108,"time": "2018-08-15 01:49:38pm", "schedule_type": "STATIC", "schedule_name": "random_5", "is_biased_choice":true,"side_choice": "RIGHT", "trial_number":62,"observed_reward":0,"unobserved_reward":0},{"RT":2922,"time": "2018-08-15 01:49:41pm", "schedule_type": "STATIC", "schedule_name": "random_5", "is_biased_choice":true,"side_choice": "RIGHT", "trial_number":63,"observed_reward":0,"unobserved_reward":0},{"RT":3156,"time": "2018-08-15 01:49:44pm", "schedule_type": "STATIC", "schedule_name": "random_5", "is_biased_choice":true,"side_choice": "RIGHT", "trial_number":64,"observed_reward":0,"unobserved_reward":1},{"RT":3078,"time": "2018-08-15 01:49:47pm", "schedule_type": "STATIC", "schedule_name": "random_5", "is_biased_choice":true,"side_choice": "RIGHT", "trial_number":65,"observed_reward":1,"unobserved_reward":0},{"RT":3393,"time": "2018-08-15 01:49:50pm", "schedule_type": "STATIC", "schedule_name": "random_5", "is_biased_choice":false,"side_choice": "LEFT", "trial_number":66,"observed_reward":0,"unobserved_reward":0},{"RT":3061,"time": "2018-08-15 01:49:53pm", "schedule_type": "STATIC", "schedule_name": "random_5", "is_biased_choice":true,"side_choice": "RIGHT", "trial_number":67,"observed_reward":0,"unobserved_reward":1},{"RT":3015,"time": "2018-08-15 01:49:56pm", "schedule_type": "STATIC", "schedule_name": "random_5", "is_biased_choice":false,"side_choice": "LEFT", "trial_number":68,"observed_reward":0,"unobserved_reward":0},{"RT":3281,"time": "2018-08-15 01:50:00pm", "schedule_type": "STATIC", "schedule_name": "random_5", "is_biased_choice":false,"side_choice": "LEFT", "trial_number":69,"observed_reward":0,"unobserved_reward":0},{"RT":3065,"time": "2018-08-15 01:50:03pm", "schedule_type": "STATIC", "schedule_name": "random_5", "is_biased_choice":false,"side_choice": "LEFT", "trial_number":70,"observed_reward":1,"unobserved_reward":0},{"RT":4281,"time": "2018-08-15 01:50:07pm", "schedule_type": "STATIC", "schedule_name": "random_5", "is_biased_choice":true,"side_choice": "RIGHT", "trial_number":71,"observed_reward":0,"unobserved_reward":0},{"RT":3142,"time": "2018-08-15 01:50:10pm", "schedule_type": "STATIC", "schedule_name": "random_5", "is_biased_choice":true,"side_choice": "RIGHT", "trial_number":72,"observed_reward":1,"unobserved_reward":0},{"RT":3421,"time": "2018-08-15 01:50:14pm", "schedule_type": "STATIC", "schedule_name": "random_5", "is_biased_choice":true,"side_choice": "RIGHT", "trial_number":73,"observed_reward":1,"unobserved_reward":0},{"RT":3586,"time": "2018-08-15 01:50:17pm", "schedule_type": "STATIC", "schedule_name": "random_5", "is_biased_choice":false,"side_choice": "LEFT", "trial_number":74,"observed_reward":0,"unobserved_reward":1},{"RT":2978,"time": "2018-08-15 01:50:20pm", "schedule_type": "STATIC", "schedule_name": "random_5", "is_biased_choice":true,"side_choice": "RIGHT", "trial_number":75,"observed_reward":0,"unobserved_reward":0},{"RT":3000,"time": "2018-08-15 01:50:23pm", "schedule_type": "STATIC", "schedule_name": "random_5", "is_biased_choice":true,"side_choice": "RIGHT", "trial_number":76,"observed_reward":0,"unobserved_reward":1},{"RT":3204,"time": "2018-08-15 01:50:26pm", "schedule_type": "STATIC", "schedule_name": "random_5", "is_biased_choice":false,"side_choice": "LEFT", "trial_number":77,"observed_reward":0,"unobserved_reward":1},{"RT":2937,"time": "2018-08-15 01:50:29pm", "schedule_type": "STATIC", "schedule_name": "random_5", "is_biased_choice":true,"side_choice": "RIGHT", "trial_number":78,"observed_reward":0,"unobserved_reward":0},{"RT":3249,"time": "2018-08-15 01:50:33pm", "schedule_type": "STATIC", "schedule_name": "random_5", "is_biased_choice":false,"side_choice": "LEFT", "trial_number":79,"observed_reward":0,"unobserved_reward":0},{"RT":3268,"time": "2018-08-15 01:50:36pm", "schedule_type": "STATIC", "schedule_name": "random_5", "is_biased_choice":true,"side_choice": "RIGHT", "trial_number":80,"observed_reward":0,"unobserved_reward":0},{"RT":3704,"time": "2018-08-15 01:50:39pm", "schedule_type": "STATIC", "schedule_name": "random_5", "is_biased_choice":false,"side_choice": "LEFT", "trial_number":81,"observed_reward":0,"unobserved_reward":0},{"RT":3234,"time": "2018-08-15 01:50:43pm", "schedule_type": "STATIC", "schedule_name": "random_5", "is_biased_choice":true,"side_choice": "RIGHT", "trial_number":82,"observed_reward":0,"unobserved_reward":0},{"RT":3438,"time": "2018-08-15 01:50:46pm", "schedule_type": "STATIC", "schedule_name": "random_5", "is_biased_choice":false,"side_choice": "LEFT", "trial_number":83,"observed_reward":1,"unobserved_reward":0},{"RT":3641,"time": "2018-08-15 01:50:50pm", "schedule_type": "STATIC", "schedule_name": "random_5", "is_biased_choice":true,"side_choice": "RIGHT", "trial_number":84,"observed_reward":1,"unobserved_reward":0},{"RT":3405,"time": "2018-08-15 01:50:53pm", "schedule_type": "STATIC", "schedule_name": "random_5", "is_biased_choice":false,"side_choice": "LEFT", "trial_number":85,"observed_reward":0,"unobserved_reward":0},{"RT":2955,"time": "2018-08-15 01:50:56pm", "schedule_type": "STATIC", "schedule_name": "random_5", "is_biased_choice":false,"side_choice": "LEFT", "trial_number":86,"observed_reward":0,"unobserved_reward":0},{"RT":3217,"time": "2018-08-15 01:50:59pm", "schedule_type": "STATIC", "schedule_name": "random_5", "is_biased_choice":false,"side_choice": "LEFT", "trial_number":87,"observed_reward":0,"unobserved_reward":1},{"RT":3015,"time": "2018-08-15 01:51:02pm", "schedule_type": "STATIC", "schedule_name": "random_5", "is_biased_choice":false,"side_choice": "LEFT", "trial_number":88,"observed_reward":0,"unobserved_reward":0},{"RT":3158,"time": "2018-08-15 01:51:06pm", "schedule_type": "STATIC", "schedule_name": "random_5", "is_biased_choice":false,"side_choice": "LEFT", "trial_number":89,"observed_reward":0,"unobserved_reward":0},{"RT":3062,"time": "2018-08-15 01:51:09pm", "schedule_type": "STATIC", "schedule_name": "random_5", "is_biased_choice":false,"side_choice": "LEFT", "trial_number":90,"observed_reward":1,"unobserved_reward":1},{"RT":3136,"time": "2018-08-15 01:51:12pm", "schedule_type": "STATIC", "schedule_name": "random_5", "is_biased_choice":true,"side_choice": "RIGHT", "trial_number":91,"observed_reward":0,"unobserved_reward":0},{"RT":3017,"time": "2018-08-15 01:51:15pm", "schedule_type": "STATIC", "schedule_name": "random_5", "is_biased_choice":true,"side_choice": "RIGHT", "trial_number":92,"observed_reward":1,"unobserved_reward":0},{"RT":3189,"time": "2018-08-15 01:51:18pm", "schedule_type": "STATIC", "schedule_name": "random_5", "is_biased_choice":false,"side_choice": "LEFT", "trial_number":93,"observed_reward":1,"unobserved_reward":0},{"RT":3061,"time": "2018-08-15 01:51:21pm", "schedule_type": "STATIC", "schedule_name": "random_5", "is_biased_choice":true,"side_choice": "RIGHT", "trial_number":94,"observed_reward":0,"unobserved_reward":0},{"RT":3171,"time": "2018-08-15 01:51:24pm", "schedule_type": "STATIC", "schedule_name": "random_5", "is_biased_choice":false,"side_choice": "LEFT", "trial_number":95,"observed_reward":0,"unobserved_reward":0},{"RT":3297,"time": "2018-08-15 01:51:27pm", "schedule_type": "STATIC", "schedule_name": "random_5", "is_biased_choice":true,"side_choice": "RIGHT", "trial_number":96,"observed_reward":0,"unobserved_reward":0},{"RT":3142,"time": "2018-08-15 01:51:31pm", "schedule_type": "STATIC", "schedule_name": "random_5", "is_biased_choice":false,"side_choice": "LEFT", "trial_number":97,"observed_reward":0,"unobserved_reward":0},{"RT":3064,"time": "2018-08-15 01:51:34pm", "schedule_type": "STATIC", "schedule_name": "random_5", "is_biased_choice":true,"side_choice": "RIGHT", "trial_number":98,"observed_reward":0,"unobserved_reward":0},