[{"RT":5589,"time": "2018-08-15 01:43:41pm", "schedule_type": "STATIC", "schedule_name": "random_5", "is_biased_choice":false,"side_choice": "RIGHT", "trial_number":0,"observed_reward":0,"unobserved_reward":0},{"RT":3799,"time": "2018-08-15 01:43:45pm", "schedule_type": "STATIC", "schedule_name": "random_5", "is_biased_choice":true,"side_choice": "LEFT", "trial_number":1,"observed_reward":0,"unobserved_reward":1},{"RT":3599,"time": "2018-08-15 01:43:48pm", "schedule_type": "STATIC", "schedule_name": "random_5", "is_biased_choice":true,"side_choice": "LEFT", "trial_number":2,"observed_reward":0,"unobserved_reward":0},{"RT":3023,"time": "2018-08-15 01:43:51pm", "schedule_type": "STATIC", "schedule_name": "random_5", "is_biased_choice":false,"side_choice": "RIGHT", "trial_number":3,"observed_reward":0,"unobserved_reward":0},{"RT":2849,"time": "2018-08-15 01:43:54pm", "schedule_type": "STATIC", "schedule_name": "random_5", "is_biased_choice":true,"side_choice": "LEFT", "trial_number":4,"observed_reward":0,"unobserved_reward":1},{"RT":2976,"time": "2018-08-15 01:43:57pm", "schedule_type": "STATIC", "schedule_name": "random_5", "is_biased_choice":true,"side_choice": "LEFT", "trial_number":5,"observed_reward":0,"unobserved_reward":1},{"RT":2472,"time": "2018-08-15 01:44:00pm", "schedule_type": "STATIC", "schedule_name": "random_5", "is_biased_choice":true,"side_choice": "LEFT", "trial_number":6,"observed_reward":1,"unobserved_reward":0},{"RT":2552,"time": "2018-08-15 01:44:02pm", "schedule_type": "STATIC", "schedule_name": "random_5", "is_biased_choice":true,"side_choice": "LEFT", "trial_number":7,"observed_reward":0,"unobserved_reward":0},{"RT":2375,"time": "2018-08-15 01:44:04pm", "schedule_type": "STATIC", "schedule_name": "random_5", "is_biased_choice":true,"side_choice": "LEFT", "trial_number":8,"observed_reward":1,"unobserved_reward":1},{"RT":2441,"time": "2018-08-15 01:44:07pm", "schedule_type": "STATIC", "schedule_name": "random_5", "is_biased_choice":true,"side_choice": "LEFT", "trial_number":9,"observed_reward":1,"unobserved_reward":0},{"RT":2383,"time": "2018-08-15 01:44:09pm", "schedule_type": "STATIC", "schedule_name": "random_5", "is_biased_choice":true,"side_choice": "LEFT", "trial_number":10,"observed_reward":1,"unobserved_reward":1},{"RT":2352,"time": "2018-08-15 01:44:12pm", "schedule_type": "STATIC", "schedule_name": "random_5", "is_biased_choice":true,"side_choice": "LEFT", "trial_number":11,"observed_reward":0,"unobserved_reward":0},{"RT":2384,"time": "2018-08-15 01:44:14pm", "schedule_type": "STATIC", "schedule_name": "random_5", "is_biased_choice":true,"side_choice": "LEFT", "trial_number":12,"observed_reward":0,"unobserved_reward":0},{"RT":2329,"time": "2018-08-15 01:44:16pm", "schedule_type": "STATIC", "schedule_name": "random_5", "is_biased_choice":true,"side_choice": "LEFT", "trial_number":13,"observed_reward":0,"unobserved_reward":0},{"RT":2312,"time": "2018-08-15 01:44:19pm", "schedule_type": "STATIC", "schedule_name": "random_5", "is_biased_choice":true,"side_choice": "LEFT", "trial_number":14,"observed_reward":0,"unobserved_reward":0},{"RT":2735,"time": "2018-08-15 01:44:23pm", "schedule_type": "STATIC", "schedule_name": "random_5", "is_biased_choice":true,"side_choice": "LEFT", "trial_number":15,"observed_reward":0,"unobserved_reward":0},{"RT":3817,"time": "2018-08-15 01:44:25pm", "schedule_type": "STATIC", "schedule_name": "random_5", "is_biased_choice":false,"side_choice": "RIGHT", "trial_number":16,"observed_reward":0,"unobserved_reward":0},{"RT":2584,"time": "2018-08-15 01:44:28pm", "schedule_type": "STATIC", "schedule_name": "random_5", "is_biased_choice":false,"side_choice": "RIGHT", "trial_number":17,"observed_reward":0,"unobserved_reward":1},{"RT":2487,"time": "2018-08-15 01:44:30pm", "schedule_type": "STATIC", "schedule_name": "random_5", "is_biased_choice":false,"side_choice": "RIGHT", "trial_number":18,"observed_reward":0,"unobserved_reward":0},{"RT":2528,"time": "2018-08-15 01:44:33pm", "schedule_type": "STATIC", "schedule_name": "random_5", "is_biased_choice":false,"side_choice": "RIGHT", "trial_number":19,"observed_reward":0,"unobserved_reward":0},{"RT":2369,"time": "2018-08-15 01:44:35pm", "schedule_type": "STATIC", "schedule_name": "random_5", "is_biased_choice":false,"side_choice": "RIGHT", "trial_number":20,"observed_reward":1,"unobserved_reward":0},{"RT":3127,"time": "2018-08-15 01:44:38pm", "schedule_type": "STATIC", "schedule_name": "random_5", "is_biased_choice":false,"side_choice": "RIGHT", "trial_number":21,"observed_reward":1,"unobserved_reward":0},{"RT":2488,"time": "2018-08-15 01:44:41pm", "schedule_type": "STATIC", "schedule_name": "random_5", "is_biased_choice":false,"side_choice": "RIGHT", "trial_number":22,"observed_reward":0,"unobserved_reward":0},{"RT":2488,"time": "2018-08-15 01:44:43pm", "schedule_type": "STATIC", "schedule_name": "random_5", "is_biased_choice":false,"side_choice": "RIGHT", "trial_number":23,"observed_reward":1,"unobserved_reward":0},{"RT":2496,"time": "2018-08-15 01:44:46pm", "schedule_type": "STATIC", "schedule_name": "random_5", "is_biased_choice":false,"side_choice": "RIGHT", "trial_number":24,"observed_reward":0,"unobserved_reward":0},{"RT":2410,"time": "2018-08-15 01:44:48pm", "schedule_type": "STATIC", "schedule_name": "random_5", "is_biased_choice":false,"side_choice": "RIGHT", "trial_number":25,"observed_reward":0,"unobserved_reward":0},{"RT":2366,"time": "2018-08-15 01:44:51pm", "schedule_type": "STATIC", "schedule_name": "random_5", "is_biased_choice":false,"side_choice": "RIGHT", "trial_number":26,"observed_reward":0,"unobserved_reward":0},{"RT":2496,"time": "2018-08-15 01:44:53pm", "schedule_type": "STATIC", "schedule_name": "random_5", "is_biased_choice":false,"side_choice": "RIGHT", "trial_number":27,"observed_reward":1,"unobserved_reward":1},{"RT":2568,"time": "2018-08-15 01:44:56pm", "schedule_type": "STATIC", "schedule_name": "random_5", "is_biased_choice":false,"side_choice": "RIGHT", "trial_number":28,"observed_reward":0,"unobserved_reward":0},{"RT":2448,"time": "2018-08-15 01:44:58pm", "schedule_type": "STATIC", "schedule_name": "random_5", "is_biased_choice":false,"side_choice": "RIGHT", "trial_number":29,"observed_reward":0,"unobserved_reward":0},{"RT":3064,"time": "2018-08-15 01:45:01pm", "schedule_type": "STATIC", "schedule_name": "random_5", "is_biased_choice":false,"side_choice": "RIGHT", "trial_number":30,"observed_reward":0,"unobserved_reward":0},{"RT":2393,"time": "2018-08-15 01:45:03pm", "schedule_type": "STATIC", "schedule_name": "random_5", "is_biased_choice":false,"side_choice": "RIGHT", "trial_number":31,"observed_reward":0,"unobserved_reward":0},{"RT":2303,"time": "2018-08-15 01:45:06pm", "schedule_type": "STATIC", "schedule_name": "random_5", "is_biased_choice":false,"side_choice": "RIGHT", "trial_number":32,"observed_reward":0,"unobserved_reward":1},{"RT":3001,"time": "2018-08-15 01:45:09pm", "schedule_type": "STATIC", "schedule_name": "random_5", "is_biased_choice":true,"side_choice": "LEFT", "trial_number":33,"observed_reward":0,"unobserved_reward":1},{"RT":2695,"time": "2018-08-15 01:45:11pm", "schedule_type": "STATIC", "schedule_name": "random_5", "is_biased_choice":true,"side_choice": "LEFT", "trial_number":34,"observed_reward":0,"unobserved_reward":0},{"RT":2305,"time": "2018-08-15 01:45:14pm", "schedule_type": "STATIC", "schedule_name": "random_5", "is_biased_choice":false,"side_choice": "RIGHT", "trial_number":35,"observed_reward":0,"unobserved_reward":1},{"RT":2592,"time": "2018-08-15 01:45:16pm", "schedule_type": "STATIC", "schedule_name": "random_5", "is_biased_choice":false,"side_choice": "RIGHT", "trial_number":36,"observed_reward":0,"unobserved_reward":1},{"RT":2455,"time": "2018-08-15 01:45:19pm", "schedule_type": "STATIC", "schedule_name": "random_5", "is_biased_choice":false,"side_choice": "RIGHT", "trial_number":37,"observed_reward":0,"unobserved_reward":1},{"RT":2417,"time": "2018-08-15 01:45:21pm", "schedule_type": "STATIC", "schedule_name": "random_5", "is_biased_choice":false,"side_choice": "RIGHT", "trial_number":38,"observed_reward":0,"unobserved_reward":0},{"RT":2440,"time": "2018-08-15 01:45:25pm", "schedule_type": "STATIC", "schedule_name": "random_5", "is_biased_choice":false,"side_choice": "RIGHT", "trial_number":39,"observed_reward":0,"unobserved_reward":0},{"RT":2472,"time": "2018-08-15 01:45:26pm", "schedule_type": "STATIC", "schedule_name": "random_5", "is_biased_choice":false,"side_choice": "RIGHT", "trial_number":40,"observed_reward":1,"unobserved_reward":1},{"RT":2360,"time": "2018-08-15 01:45:28pm", "schedule_type": "STATIC", "schedule_name": "random_5", "is_biased_choice":false,"side_choice": "RIGHT", "trial_number":41,"observed_reward":1,"unobserved_reward":1},{"RT":2567,"time": "2018-08-15 01:45:31pm", "schedule_type": "STATIC", "schedule_name": "random_5", "is_biased_choice":false,"side_choice": "RIGHT", "trial_number":42,"observed_reward":0,"unobserved_reward":0},{"RT":3057,"time": "2018-08-15 01:45:34pm", "schedule_type": "STATIC", "schedule_name": "random_5", "is_biased_choice":false,"side_choice": "RIGHT", "trial_number":43,"observed_reward":1,"unobserved_reward":0},{"RT":2399,"time": "2018-08-15 01:45:37pm", "schedule_type": "STATIC", "schedule_name": "random_5", "is_biased_choice":false,"side_choice": "RIGHT", "trial_number":44,"observed_reward":0,"unobserved_reward":1},{"RT":2377,"time": "2018-08-15 01:45:39pm", "schedule_type": "STATIC", "schedule_name": "random_5", "is_biased_choice":false,"side_choice": "RIGHT", "trial_number":45,"observed_reward":0,"unobserved_reward":0},{"RT":2392,"time": "2018-08-15 01:45:41pm", "schedule_type": "STATIC", "schedule_name": "random_5", "is_biased_choice":false,"side_choice": "RIGHT", "trial_number":46,"observed_reward":0,"unobserved_reward":0},{"RT":2272,"time": "2018-08-15 01:45:44pm", "schedule_type": "STATIC", "schedule_name": "random_5", "is_biased_choice":false,"side_choice": "RIGHT", "trial_number":47,"observed_reward":1,"unobserved_reward":1},{"RT":2408,"time": "2018-08-15 01:45:46pm", "schedule_type": "STATIC", "schedule_name": "random_5", "is_biased_choice":false,"side_choice": "RIGHT", "trial_number":48,"observed_reward":0,"unobserved_reward":0},{"RT":2375,"time": "2018-08-15 01:45:48pm", "schedule_type": "STATIC", "schedule_name": "random_5", "is_biased_choice":false,"side_choice": "RIGHT", "trial_number":49,"observed_reward":1,"unobserved_reward":0},{"RT":2280,"time": "2018-08-15 01:45:51pm", "schedule_type": "STATIC", "schedule_name": "random_5", "is_biased_choice":false,"side_choice": "RIGHT", "trial_number":50,"observed_reward":0,"unobserved_reward":0},{"RT":2377,"time": "2018-08-15 01:45:53pm", "schedule_type": "STATIC", "schedule_name": "random_5", "is_biased_choice":false,"side_choice": "RIGHT", "trial_number":51,"observed_reward":0,"unobserved_reward":0},{"RT":2304,"time": "2018-08-15 01:45:55pm", "schedule_type": "STATIC", "schedule_name": "random_5", "is_biased_choice":false,"side_choice": "RIGHT", "trial_number":52,"observed_reward":0,"unobserved_reward":1},{"RT":2527,"time": "2018-08-15 01:45:58pm", "schedule_type": "STATIC", "schedule_name": "random_5", "is_biased_choice":false,"side_choice": "RIGHT", "trial_number":53,"observed_reward":1,"unobserved_reward":0},{"RT":2537,"time": "2018-08-15 01:46:01pm", "schedule_type": "STATIC", "schedule_name": "random_5", "is_biased_choice":false,"side_choice": "RIGHT", "trial_number":54,"observed_reward":0,"unobserved_reward":0},{"RT":2503,"time": "2018-08-15 01:46:03pm", "schedule_type": "STATIC", "schedule_name": "random_5", "is_biased_choice":false,"side_choice": "RIGHT", "trial_number":55,"observed_reward":1,"unobserved_reward":0},{"RT":2345,"time": "2018-08-15 01:46:05pm", "schedule_type": "STATIC", "schedule_name": "random_5", "is_biased_choice":false,"side_choice": "RIGHT", "trial_number":56,"observed_reward":0,"unobserved_reward":0},{"RT":2287,"time": "2018-08-15 01:46:08pm", "schedule_type": "STATIC", "schedule_name": "random_5", "is_biased_choice":false,"side_choice": "RIGHT", "trial_number":57,"observed_reward":0,"unobserved_reward":1},{"RT":2304,"time": "2018-08-15 01:46:10pm", "schedule_type": "STATIC", "schedule_name": "random_5", "is_biased_choice":false,"side_choice": "RIGHT", "trial_number":58,"observed_reward":0,"unobserved_reward":0},{"RT":2311,"time": "2018-08-15 01:46:12pm", "schedule_type": "STATIC", "schedule_name": "random_5", "is_biased_choice":false,"side_choice": "RIGHT", "trial_number":59,"observed_reward":0,"unobserved_reward":0},{"RT":2330,"time": "2018-08-15 01:46:14pm", "schedule_type": "STATIC", "schedule_name": "random_5", "is_biased_choice":false,"side_choice": "RIGHT", "trial_number":60,"observed_reward":1,"unobserved_reward":0},{"RT":2871,"time": "2018-08-15 01:46:17pm", "schedule_type": "STATIC", "schedule_name": "random_5", "is_biased_choice":false,"side_choice": "RIGHT", "trial_number":61,"observed_reward":0,"unobserved_reward":0},{"RT":2385,"time": "2018-08-15 01:46:20pm", "schedule_type": "STATIC", "schedule_name": "random_5", "is_biased_choice":false,"side_choice": "RIGHT", "trial_number":62,"observed_reward":0,"unobserved_reward":0},{"RT":2503,"time": "2018-08-15 01:46:22pm", "schedule_type": "STATIC", "schedule_name": "random_5", "is_biased_choice":false,"side_choice": "RIGHT", "trial_number":63,"observed_reward":0,"unobserved_reward":0},{"RT":2360,"time": "2018-08-15 01:46:26pm", "schedule_type": "STATIC", "schedule_name": "random_5", "is_biased_choice":false,"side_choice": "RIGHT", "trial_number":64,"observed_reward":1,"unobserved_reward":0},{"RT":3864,"time": "2018-08-15 01:46:28pm", "schedule_type": "STATIC", "schedule_name": "random_5", "is_biased_choice":false,"side_choice": "RIGHT", "trial_number":65,"observed_reward":0,"unobserved_reward":1},{"RT":3288,"time": "2018-08-15 01:46:32pm", "schedule_type": "STATIC", "schedule_name": "random_5", "is_biased_choice":true,"side_choice": "LEFT", "trial_number":66,"observed_reward":0,"unobserved_reward":0},{"RT":2496,"time": "2018-08-15 01:46:34pm", "schedule_type": "STATIC", "schedule_name": "random_5", "is_biased_choice":false,"side_choice": "RIGHT", "trial_number":67,"observed_reward":1,"unobserved_reward":0},{"RT":2296,"time": "2018-08-15 01:46:36pm", "schedule_type": "STATIC", "schedule_name": "random_5", "is_biased_choice":false,"side_choice": "RIGHT", "trial_number":68,"observed_reward":0,"unobserved_reward":0},{"RT":2274,"time": "2018-08-15 01:46:39pm", "schedule_type": "STATIC", "schedule_name": "random_5", "is_biased_choice":true,"side_choice": "LEFT", "trial_number":69,"observed_reward":0,"unobserved_reward":0},{"RT":2334,"time": "2018-08-15 01:46:41pm", "schedule_type": "STATIC", "schedule_name": "random_5", "is_biased_choice":false,"side_choice": "RIGHT", "trial_number":70,"observed_reward":1,"unobserved_reward":0},{"RT":2679,"time": "2018-08-15 01:46:44pm", "schedule_type": "STATIC", "schedule_name": "random_5", "is_biased_choice":false,"side_choice": "RIGHT", "trial_number":71,"observed_reward":0,"unobserved_reward":0},{"RT":2681,"time": "2018-08-15 01:46:46pm", "schedule_type": "STATIC", "schedule_name": "random_5", "is_biased_choice":false,"side_choice": "RIGHT", "trial_number":72,"observed_reward":0,"unobserved_reward":1},{"RT":2341,"time": "2018-08-15 01:46:49pm", "schedule_type": "STATIC", "schedule_name": "random_5", "is_biased_choice":false,"side_choice": "RIGHT", "trial_number":73,"observed_reward":0,"unobserved_reward":1},{"RT":2259,"time": "2018-08-15 01:46:51pm", "schedule_type": "STATIC", "schedule_name": "random_5", "is_biased_choice":false,"side_choice": "RIGHT", "trial_number":74,"observed_reward":0,"unobserved_reward":1},{"RT":2359,"time": "2018-08-15 01:46:53pm", "schedule_type": "STATIC", "schedule_name": "random_5", "is_biased_choice":false,"side_choice": "RIGHT", "trial_number":75,"observed_reward":0,"unobserved_reward":0},{"RT":2529,"time": "2018-08-15 01:46:56pm", "schedule_type": "STATIC", "schedule_name": "random_5", "is_biased_choice":false,"side_choice": "RIGHT", "trial_number":76,"observed_reward":1,"unobserved_reward":0},{"RT":2593,"time": "2018-08-15 01:46:59pm", "schedule_type": "STATIC", "schedule_name": "random_5", "is_biased_choice":false,"side_choice": "RIGHT", "trial_number":77,"observed_reward":0,"unobserved_reward":1},{"RT":2406,"time": "2018-08-15 01:47:01pm", "schedule_type": "STATIC", "schedule_name": "random_5", "is_biased_choice":true,"side_choice": "LEFT", "trial_number":78,"observed_reward":0,"unobserved_reward":0},{"RT":2331,"time": "2018-08-15 01:47:03pm", "schedule_type": "STATIC", "schedule_name": "random_5", "is_biased_choice":false,"side_choice": "RIGHT", "trial_number":79,"observed_reward":0,"unobserved_reward":0},{"RT":2286,"time": "2018-08-15 01:47:06pm", "schedule_type": "STATIC", "schedule_name": "random_5", "is_biased_choice":true,"side_choice": "LEFT", "trial_number":80,"observed_reward":0,"unobserved_reward":0},{"RT":2272,"time": "2018-08-15 01:47:08pm", "schedule_type": "STATIC", "schedule_name": "random_5", "is_biased_choice":false,"side_choice": "RIGHT", "trial_number":81,"observed_reward":0,"unobserved_reward":0},{"RT":2264,"time": "2018-08-15 01:47:10pm", "schedule_type": "STATIC", "schedule_name": "random_5", "is_biased_choice":false,"side_choice": "RIGHT", "trial_number":82,"observed_reward":0,"unobserved_reward":0},{"RT":2281,"time": "2018-08-15 01:47:12pm", "schedule_type": "STATIC", "schedule_name": "random_5", "is_biased_choice":false,"side_choice": "RIGHT", "trial_number":83,"observed_reward":1,"unobserved_reward":0},{"RT":2455,"time": "2018-08-15 01:47:15pm", "schedule_type": "STATIC", "schedule_name": "random_5", "is_biased_choice":false,"side_choice": "RIGHT", "trial_number":84,"observed_reward":0,"unobserved_reward":1},{"RT":2551,"time": "2018-08-15 01:47:17pm", "schedule_type": "STATIC", "schedule_name": "random_5", "is_biased_choice":false,"side_choice": "RIGHT", "trial_number":85,"observed_reward":0,"unobserved_reward":0},{"RT":2266,"time": "2018-08-15 01:47:20pm", "schedule_type": "STATIC", "schedule_name": "random_5", "is_biased_choice":false,"side_choice": "RIGHT", "trial_number":86,"observed_reward":0,"unobserved_reward":0},{"RT":2983,"time": "2018-08-15 01:47:23pm", "schedule_type": "STATIC", "schedule_name": "random_5", "is_biased_choice":false,"side_choice": "RIGHT", "trial_number":87,"observed_reward":0,"unobserved_reward":1},{"RT":2600,"time": "2018-08-15 01:47:27pm", "schedule_type": "STATIC", "schedule_name": "random_5", "is_biased_choice":false,"side_choice": "RIGHT", "trial_number":88,"observed_reward":0,"unobserved_reward":0},{"RT":2624,"time": "2018-08-15 01:47:29pm", "schedule_type": "STATIC", "schedule_name": "random_5", "is_biased_choice":false,"side_choice": "RIGHT", "trial_number":89,"observed_reward":0,"unobserved_reward":0},{"RT":2256,"time": "2018-08-15 01:47:30pm", "schedule_type": "STATIC", "schedule_name": "random_5", "is_biased_choice":false,"side_choice": "RIGHT", "trial_number":90,"observed_reward":1,"unobserved_reward":1},{"RT":2352,"time": "2018-08-15 01:47:33pm", "schedule_type": "STATIC", "schedule_name": "random_5", "is_biased_choice":false,"side_choice": "RIGHT", "trial_number":91,"observed_reward":0,"unobserved_reward":0},{"RT":2353,"time": "2018-08-15 01:47:35pm", "schedule_type": "STATIC", "schedule_name": "random_5", "is_biased_choice":false,"side_choice": "RIGHT", "trial_number":92,"observed_reward":0,"unobserved_reward":1},{"RT":2279,"time": "2018-08-15 01:47:37pm", "schedule_type": "STATIC", "schedule_name": "random_5", "is_biased_choice":false,"side_choice": "RIGHT", "trial_number":93,"observed_reward":1,"unobserved_reward":0},{"RT":2723,"time": "2018-08-15 01:47:40pm", "schedule_type": "STATIC", "schedule_name": "random_5", "is_biased_choice":false,"side_choice": "RIGHT", "trial_number":94,"observed_reward":0,"unobserved_reward":0},{"RT":2412,"time": "2018-08-15 01:47:42pm", "schedule_type": "STATIC", "schedule_name": "random_5", "is_biased_choice":true,"side_choice": "LEFT", "trial_number":95,"observed_reward":0,"unobserved_reward":0},{"RT":2418,"time": "2018-08-15 01:47:45pm", "schedule_type": "STATIC", "schedule_name": "random_5", "is_biased_choice":false,"side_choice": "RIGHT", "trial_number":96,"observed_reward":0,"unobserved_reward":0},{"RT":2251,"time": "2018-08-15 01:47:47pm", "schedule_type": "STATIC", "schedule_name": "random_5", "is_biased_choice":false,"side_choice": "RIGHT", "trial_number":97,"observed_reward":0,"unobserved_reward":0},{"RT":2308,"time": "2018-08-15 01:47:49pm", "schedule_type": "STATIC", "schedule_name": "random_5", "is_biased_choice":false,"side_choice": "RIGHT", "trial_number":98,"observed_reward":0,"unobserved_reward":0},{"RT":2267,"time": "2018-08-15 01:47:52pm", "schedule_type": "STATIC", "schedule_name": "random_5", "is_biased_choice":false,"side_choice": "RIGHT", "trial_number":99,"observed_reward":0,"unobserved_reward":0},