trial_number, time, schedule_type, schedule_name, is_biased_choice, side_choice, RT, observed_reward, unobserved_reward, biased_reward, unbiased_reward
0,2018-08-15 03:42:07pm, STATIC, random_5, true, RIGHT, 2128, 0, 0, 0, 0
1,2018-08-15 03:42:11pm, STATIC, random_5, true, RIGHT, 4361, 0, 1, 0, 1
2,2018-08-15 03:42:15pm, STATIC, random_5, false, LEFT, 3175, 0, 0, 0, 0
3,2018-08-15 03:42:18pm, STATIC, random_5, false, LEFT, 3454, 0, 0, 0, 0
4,2018-08-15 03:42:22pm, STATIC, random_5, true, RIGHT, 3722, 0, 1, 0, 1
5,2018-08-15 03:42:25pm, STATIC, random_5, false, LEFT, 3169, 1, 0, 0, 1
6,2018-08-15 03:42:29pm, STATIC, random_5, false, LEFT, 4071, 0, 1, 1, 0
7,2018-08-15 03:42:34pm, STATIC, random_5, false, LEFT, 4591, 0, 0, 0, 0
8,2018-08-15 03:42:38pm, STATIC, random_5, true, RIGHT, 4059, 1, 1, 1, 1
9,2018-08-15 03:42:43pm, STATIC, random_5, false, LEFT, 5865, 0, 1, 1, 0
10,2018-08-15 03:42:47pm, STATIC, random_5, true, RIGHT, 3270, 1, 1, 1, 1
11,2018-08-15 03:42:51pm, STATIC, random_5, false, LEFT, 4705, 0, 0, 0, 0
12,2018-08-15 03:42:56pm, STATIC, random_5, true, RIGHT, 4054, 0, 0, 0, 0
13,2018-08-15 03:42:59pm, STATIC, random_5, false, LEFT, 3179, 0, 0, 0, 0
14,2018-08-15 03:43:02pm, STATIC, random_5, true, RIGHT, 3491, 0, 0, 0, 0
15,2018-08-15 03:43:05pm, STATIC, random_5, false, LEFT, 3292, 0, 0, 0, 0
16,2018-08-15 03:43:09pm, STATIC, random_5, true, RIGHT, 3383, 0, 0, 0, 0
17,2018-08-15 03:43:12pm, STATIC, random_5, true, RIGHT, 3504, 1, 0, 1, 0
18,2018-08-15 03:43:16pm, STATIC, random_5, true, RIGHT, 3577, 0, 0, 0, 0
19,2018-08-15 03:43:20pm, STATIC, random_5, true, RIGHT, 3608, 0, 0, 0, 0
20,2018-08-15 03:43:23pm, STATIC, random_5, true, RIGHT, 3055, 0, 1, 0, 1
21,2018-08-15 03:43:26pm, STATIC, random_5, true, RIGHT, 3336, 0, 1, 0, 1
22,2018-08-15 03:43:29pm, STATIC, random_5, false, LEFT, 3009, 0, 0, 0, 0
23,2018-08-15 03:43:32pm, STATIC, random_5, true, RIGHT, 3255, 0, 1, 0, 1
24,2018-08-15 03:43:38pm, STATIC, random_5, false, LEFT, 6006, 0, 0, 0, 0
25,2018-08-15 03:43:41pm, STATIC, random_5, true, RIGHT, 3115, 0, 0, 0, 0
26,2018-08-15 03:43:49pm, STATIC, random_5, false, LEFT, 7252, 0, 0, 0, 0
27,2018-08-15 03:43:52pm, STATIC, random_5, true, RIGHT, 3516, 1, 1, 1, 1
28,2018-08-15 03:43:55pm, STATIC, random_5, true, RIGHT, 3270, 0, 0, 0, 0
29,2018-08-15 03:43:58pm, STATIC, random_5, true, RIGHT, 3027, 0, 0, 0, 0
30,2018-08-15 03:44:02pm, STATIC, random_5, true, RIGHT, 3158, 0, 0, 0, 0
31,2018-08-15 03:44:05pm, STATIC, random_5, true, RIGHT, 3105, 0, 0, 0, 0
32,2018-08-15 03:44:08pm, STATIC, random_5, true, RIGHT, 3041, 1, 0, 1, 0
33,2018-08-15 03:44:14pm, STATIC, random_5, false, LEFT, 6582, 1, 0, 0, 1
34,2018-08-15 03:44:19pm, STATIC, random_5, true, RIGHT, 4737, 0, 0, 0, 0
35,2018-08-15 03:44:23pm, STATIC, random_5, true, RIGHT, 3817, 1, 0, 1, 0
36,2018-08-15 03:44:27pm, STATIC, random_5, true, RIGHT, 4351, 1, 0, 1, 0
37,2018-08-15 03:44:31pm, STATIC, random_5, false, LEFT, 3752, 0, 1, 1, 0
38,2018-08-15 03:44:34pm, STATIC, random_5, true, RIGHT, 3334, 0, 0, 0, 0
39,2018-08-15 03:44:38pm, STATIC, random_5, false, LEFT, 4067, 0, 0, 0, 0
40,2018-08-15 03:44:42pm, STATIC, random_5, true, RIGHT, 3390, 1, 1, 1, 1
41,2018-08-15 03:44:45pm, STATIC, random_5, false, LEFT, 3497, 1, 1, 1, 1
42,2018-08-15 03:44:48pm, STATIC, random_5, true, RIGHT, 3239, 0, 0, 0, 0
43,2018-08-15 03:44:52pm, STATIC, random_5, false, LEFT, 3098, 1, 0, 0, 1
44,2018-08-15 03:45:03pm, STATIC, random_5, true, RIGHT, 11694, 1, 0, 1, 0
45,2018-08-15 03:45:08pm, STATIC, random_5, false, LEFT, 5122, 0, 0, 0, 0
46,2018-08-15 03:45:13pm, STATIC, random_5, true, RIGHT, 4248, 0, 0, 0, 0
47,2018-08-15 03:45:16pm, STATIC, random_5, true, RIGHT, 3440, 1, 1, 1, 1
48,2018-08-15 03:45:20pm, STATIC, random_5, false, LEFT, 3491, 0, 0, 0, 0
49,2018-08-15 03:45:23pm, STATIC, random_5, true, RIGHT, 3221, 0, 1, 0, 1
50,2018-08-15 03:45:26pm, STATIC, random_5, false, LEFT, 3246, 0, 0, 0, 0
51,2018-08-15 03:45:30pm, STATIC, random_5, false, LEFT, 3643, 0, 0, 0, 0
52,2018-08-15 03:45:33pm, STATIC, random_5, true, RIGHT, 3212, 1, 0, 1, 0
53,2018-08-15 03:45:36pm, STATIC, random_5, false, LEFT, 3508, 1, 0, 0, 1
54,2018-08-15 03:45:40pm, STATIC, random_5, false, LEFT, 3710, 0, 0, 0, 0
55,2018-08-15 03:45:44pm, STATIC, random_5, true, RIGHT, 3454, 0, 1, 0, 1
56,2018-08-15 03:45:47pm, STATIC, random_5, false, LEFT, 3330, 0, 0, 0, 0
57,2018-08-15 03:45:51pm, STATIC, random_5, true, RIGHT, 3953, 1, 0, 1, 0
58,2018-08-15 03:45:54pm, STATIC, random_5, true, RIGHT, 3199, 0, 0, 0, 0
59,2018-08-15 03:45:57pm, STATIC, random_5, true, RIGHT, 3032, 0, 0, 0, 0
60,2018-08-15 03:46:01pm, STATIC, random_5, true, RIGHT, 3545, 0, 1, 0, 1
61,2018-08-15 03:46:04pm, STATIC, random_5, false, LEFT, 3559, 0, 0, 0, 0
62,2018-08-15 03:46:09pm, STATIC, random_5, true, RIGHT, 4392, 0, 0, 0, 0
63,2018-08-15 03:46:12pm, STATIC, random_5, false, LEFT, 3200, 0, 0, 0, 0
64,2018-08-15 03:46:15pm, STATIC, random_5, false, LEFT, 3234, 1, 0, 0, 1
65,2018-08-15 03:46:21pm, STATIC, random_5, true, RIGHT, 6336, 1, 0, 1, 0
66,2018-08-15 03:46:25pm, STATIC, random_5, true, RIGHT, 3871, 0, 0, 0, 0
67,2018-08-15 03:46:28pm, STATIC, random_5, false, LEFT, 3182, 1, 0, 0, 1
68,2018-08-15 03:46:32pm, STATIC, random_5, true, RIGHT, 3323, 0, 0, 0, 0
69,2018-08-15 03:46:35pm, STATIC, random_5, true, RIGHT, 3199, 0, 0, 0, 0
70,2018-08-15 03:46:38pm, STATIC, random_5, true, RIGHT, 3190, 0, 1, 0, 1
71,2018-08-15 03:46:41pm, STATIC, random_5, true, RIGHT, 3030, 0, 0, 0, 0
72,2018-08-15 03:46:44pm, STATIC, random_5, false, LEFT, 3205, 0, 1, 1, 0
73,2018-08-15 03:46:48pm, STATIC, random_5, true, RIGHT, 3336, 1, 0, 1, 0
74,2018-08-15 03:46:51pm, STATIC, random_5, true, RIGHT, 3214, 1, 0, 1, 0
75,2018-08-15 03:46:55pm, STATIC, random_5, true, RIGHT, 4385, 0, 0, 0, 0
76,2018-08-15 03:46:59pm, STATIC, random_5, false, LEFT, 3408, 1, 0, 0, 1
77,2018-08-15 03:47:02pm, STATIC, random_5, true, RIGHT, 3345, 1, 0, 1, 0
78,2018-08-15 03:47:05pm, STATIC, random_5, true, RIGHT, 3165, 0, 0, 0, 0
79,2018-08-15 03:47:09pm, STATIC, random_5, false, LEFT, 3771, 0, 0, 0, 0
80,2018-08-15 03:47:12pm, STATIC, random_5, true, RIGHT, 2951, 0, 0, 0, 0
81,2018-08-15 03:47:15pm, STATIC, random_5, false, LEFT, 3551, 0, 0, 0, 0
82,2018-08-15 03:47:19pm, STATIC, random_5, true, RIGHT, 3114, 0, 0, 0, 0
83,2018-08-15 03:47:22pm, STATIC, random_5, true, RIGHT, 3225, 0, 1, 0, 1
84,2018-08-15 03:47:25pm, STATIC, random_5, true, RIGHT, 3208, 1, 0, 1, 0
85,2018-08-15 03:47:29pm, STATIC, random_5, false, LEFT, 3896, 0, 0, 0, 0
86,2018-08-15 03:47:32pm, STATIC, random_5, true, RIGHT, 3057, 0, 0, 0, 0
87,2018-08-15 03:47:35pm, STATIC, random_5, true, RIGHT, 3160, 1, 0, 1, 0
88,2018-08-15 03:47:38pm, STATIC, random_5, true, RIGHT, 3198, 0, 0, 0, 0
89,2018-08-15 03:47:41pm, STATIC, random_5, false, LEFT, 3136, 0, 0, 0, 0
90,2018-08-15 03:47:45pm, STATIC, random_5, true, RIGHT, 3281, 1, 1, 1, 1
91,2018-08-15 03:47:48pm, STATIC, random_5, true, RIGHT, 3255, 0, 0, 0, 0
92,2018-08-15 03:47:51pm, STATIC, random_5, true, RIGHT, 3105, 1, 0, 1, 0
93,2018-08-15 03:47:55pm, STATIC, random_5, false, LEFT, 4248, 1, 0, 0, 1
94,2018-08-15 03:48:01pm, STATIC, random_5, true, RIGHT, 6023, 0, 0, 0, 0
95,2018-08-15 03:48:05pm, STATIC, random_5, false, LEFT, 3177, 0, 0, 0, 0
96,2018-08-15 03:48:08pm, STATIC, random_5, false, LEFT, 3807, 0, 0, 0, 0
97,2018-08-15 03:48:12pm, STATIC, random_5, true, RIGHT, 3177, 0, 0, 0, 0
98,2018-08-15 03:48:15pm, STATIC, random_5, true, RIGHT, 3432, 0, 0, 0, 0
