[{"RT":68335,"time": "2018-08-15 01:43:41pm", "schedule_type": "STATIC", "schedule_name": "random_5", "is_biased_choice":true,"side_choice": "LEFT", "trial_number":0,"observed_reward":0,"unobserved_reward":0},{"RT":8337,"time": "2018-08-15 01:43:50pm", "schedule_type": "STATIC", "schedule_name": "random_5", "is_biased_choice":false,"side_choice": "RIGHT", "trial_number":1,"observed_reward":1,"unobserved_reward":0},{"RT":4383,"time": "2018-08-15 01:43:54pm", "schedule_type": "STATIC", "schedule_name": "random_5", "is_biased_choice":true,"side_choice": "LEFT", "trial_number":2,"observed_reward":0,"unobserved_reward":0},{"RT":3268,"time": "2018-08-15 01:43:57pm", "schedule_type": "STATIC", "schedule_name": "random_5", "is_biased_choice":false,"side_choice": "RIGHT", "trial_number":3,"observed_reward":0,"unobserved_reward":0},{"RT":4372,"time": "2018-08-15 01:44:02pm", "schedule_type": "STATIC", "schedule_name": "random_5", "is_biased_choice":true,"side_choice": "LEFT", "trial_number":4,"observed_reward":0,"unobserved_reward":1},{"RT":2952,"time": "2018-08-15 01:44:04pm", "schedule_type": "STATIC", "schedule_name": "random_5", "is_biased_choice":false,"side_choice": "RIGHT", "trial_number":5,"observed_reward":1,"unobserved_reward":0},{"RT":6642,"time": "2018-08-15 01:44:11pm", "schedule_type": "STATIC", "schedule_name": "random_5", "is_biased_choice":false,"side_choice": "RIGHT", "trial_number":6,"observed_reward":0,"unobserved_reward":1},{"RT":2917,"time": "2018-08-15 01:44:14pm", "schedule_type": "STATIC", "schedule_name": "random_5", "is_biased_choice":true,"side_choice": "LEFT", "trial_number":7,"observed_reward":0,"unobserved_reward":0},{"RT":2999,"time": "2018-08-15 01:44:17pm", "schedule_type": "STATIC", "schedule_name": "random_5", "is_biased_choice":false,"side_choice": "RIGHT", "trial_number":8,"observed_reward":1,"unobserved_reward":1},{"RT":3987,"time": "2018-08-15 01:44:21pm", "schedule_type": "STATIC", "schedule_name": "random_5", "is_biased_choice":false,"side_choice": "RIGHT", "trial_number":9,"observed_reward":0,"unobserved_reward":1},{"RT":3096,"time": "2018-08-15 01:44:25pm", "schedule_type": "STATIC", "schedule_name": "random_5", "is_biased_choice":true,"side_choice": "LEFT", "trial_number":10,"observed_reward":1,"unobserved_reward":1},{"RT":6184,"time": "2018-08-15 01:44:30pm", "schedule_type": "STATIC", "schedule_name": "random_5", "is_biased_choice":false,"side_choice": "RIGHT", "trial_number":11,"observed_reward":0,"unobserved_reward":0},{"RT":3705,"time": "2018-08-15 01:44:34pm", "schedule_type": "STATIC", "schedule_name": "random_5", "is_biased_choice":false,"side_choice": "RIGHT", "trial_number":12,"observed_reward":0,"unobserved_reward":0},{"RT":2798,"time": "2018-08-15 01:44:37pm", "schedule_type": "STATIC", "schedule_name": "random_5", "is_biased_choice":true,"side_choice": "LEFT", "trial_number":13,"observed_reward":0,"unobserved_reward":0},{"RT":2734,"time": "2018-08-15 01:44:40pm", "schedule_type": "STATIC", "schedule_name": "random_5", "is_biased_choice":false,"side_choice": "RIGHT", "trial_number":14,"observed_reward":0,"unobserved_reward":0},{"RT":2811,"time": "2018-08-15 01:44:42pm", "schedule_type": "STATIC", "schedule_name": "random_5", "is_biased_choice":false,"side_choice": "RIGHT", "trial_number":15,"observed_reward":0,"unobserved_reward":0},{"RT":2775,"time": "2018-08-15 01:44:45pm", "schedule_type": "STATIC", "schedule_name": "random_5", "is_biased_choice":true,"side_choice": "LEFT", "trial_number":16,"observed_reward":0,"unobserved_reward":0},{"RT":2642,"time": "2018-08-15 01:44:48pm", "schedule_type": "STATIC", "schedule_name": "random_5", "is_biased_choice":false,"side_choice": "RIGHT", "trial_number":17,"observed_reward":0,"unobserved_reward":1},{"RT":2861,"time": "2018-08-15 01:44:51pm", "schedule_type": "STATIC", "schedule_name": "random_5", "is_biased_choice":true,"side_choice": "LEFT", "trial_number":18,"observed_reward":0,"unobserved_reward":0},{"RT":2873,"time": "2018-08-15 01:44:53pm", "schedule_type": "STATIC", "schedule_name": "random_5", "is_biased_choice":false,"side_choice": "RIGHT", "trial_number":19,"observed_reward":0,"unobserved_reward":0},{"RT":2505,"time": "2018-08-15 01:44:56pm", "schedule_type": "STATIC", "schedule_name": "random_5", "is_biased_choice":false,"side_choice": "RIGHT", "trial_number":20,"observed_reward":1,"unobserved_reward":0},{"RT":3696,"time": "2018-08-15 01:45:00pm", "schedule_type": "STATIC", "schedule_name": "random_5", "is_biased_choice":true,"side_choice": "LEFT", "trial_number":21,"observed_reward":0,"unobserved_reward":1},{"RT":2748,"time": "2018-08-15 01:45:02pm", "schedule_type": "STATIC", "schedule_name": "random_5", "is_biased_choice":false,"side_choice": "RIGHT", "trial_number":22,"observed_reward":0,"unobserved_reward":0},{"RT":3784,"time": "2018-08-15 01:45:06pm", "schedule_type": "STATIC", "schedule_name": "random_5", "is_biased_choice":true,"side_choice": "LEFT", "trial_number":23,"observed_reward":0,"unobserved_reward":1},{"RT":2602,"time": "2018-08-15 01:45:09pm", "schedule_type": "STATIC", "schedule_name": "random_5", "is_biased_choice":false,"side_choice": "RIGHT", "trial_number":24,"observed_reward":0,"unobserved_reward":0},{"RT":2767,"time": "2018-08-15 01:45:12pm", "schedule_type": "STATIC", "schedule_name": "random_5", "is_biased_choice":true,"side_choice": "LEFT", "trial_number":25,"observed_reward":0,"unobserved_reward":0},{"RT":2631,"time": "2018-08-15 01:45:14pm", "schedule_type": "STATIC", "schedule_name": "random_5", "is_biased_choice":false,"side_choice": "RIGHT", "trial_number":26,"observed_reward":0,"unobserved_reward":0},{"RT":2645,"time": "2018-08-15 01:45:17pm", "schedule_type": "STATIC", "schedule_name": "random_5", "is_biased_choice":true,"side_choice": "LEFT", "trial_number":27,"observed_reward":1,"unobserved_reward":1},{"RT":3103,"time": "2018-08-15 01:45:20pm", "schedule_type": "STATIC", "schedule_name": "random_5", "is_biased_choice":false,"side_choice": "RIGHT", "trial_number":28,"observed_reward":0,"unobserved_reward":0},{"RT":3451,"time": "2018-08-15 01:45:25pm", "schedule_type": "STATIC", "schedule_name": "random_5", "is_biased_choice":true,"side_choice": "LEFT", "trial_number":29,"observed_reward":0,"unobserved_reward":0},{"RT":12002,"time": "2018-08-15 01:45:36pm", "schedule_type": "STATIC", "schedule_name": "random_5", "is_biased_choice":false,"side_choice": "RIGHT", "trial_number":30,"observed_reward":0,"unobserved_reward":0},{"RT":5149,"time": "2018-08-15 01:45:41pm", "schedule_type": "STATIC", "schedule_name": "random_5", "is_biased_choice":true,"side_choice": "LEFT", "trial_number":31,"observed_reward":0,"unobserved_reward":0},{"RT":2641,"time": "2018-08-15 01:45:43pm", "schedule_type": "STATIC", "schedule_name": "random_5", "is_biased_choice":false,"side_choice": "RIGHT", "trial_number":32,"observed_reward":0,"unobserved_reward":1},{"RT":2461,"time": "2018-08-15 01:45:46pm", "schedule_type": "STATIC", "schedule_name": "random_5", "is_biased_choice":true,"side_choice": "LEFT", "trial_number":33,"observed_reward":0,"unobserved_reward":1},{"RT":3195,"time": "2018-08-15 01:45:49pm", "schedule_type": "STATIC", "schedule_name": "random_5", "is_biased_choice":false,"side_choice": "RIGHT", "trial_number":34,"observed_reward":0,"unobserved_reward":0},{"RT":3300,"time": "2018-08-15 01:45:52pm", "schedule_type": "STATIC", "schedule_name": "random_5", "is_biased_choice":true,"side_choice": "LEFT", "trial_number":35,"observed_reward":1,"unobserved_reward":0},{"RT":2869,"time": "2018-08-15 01:45:55pm", "schedule_type": "STATIC", "schedule_name": "random_5", "is_biased_choice":false,"side_choice": "RIGHT", "trial_number":36,"observed_reward":0,"unobserved_reward":1},{"RT":2481,"time": "2018-08-15 01:45:58pm", "schedule_type": "STATIC", "schedule_name": "random_5", "is_biased_choice":true,"side_choice": "LEFT", "trial_number":37,"observed_reward":1,"unobserved_reward":0},{"RT":2867,"time": "2018-08-15 01:46:00pm", "schedule_type": "STATIC", "schedule_name": "random_5", "is_biased_choice":true,"side_choice": "LEFT", "trial_number":38,"observed_reward":0,"unobserved_reward":0},{"RT":2479,"time": "2018-08-15 01:46:03pm", "schedule_type": "STATIC", "schedule_name": "random_5", "is_biased_choice":false,"side_choice": "RIGHT", "trial_number":39,"observed_reward":0,"unobserved_reward":0},{"RT":2616,"time": "2018-08-15 01:46:05pm", "schedule_type": "STATIC", "schedule_name": "random_5", "is_biased_choice":false,"side_choice": "RIGHT", "trial_number":40,"observed_reward":1,"unobserved_reward":1},{"RT":4424,"time": "2018-08-15 01:46:10pm", "schedule_type": "STATIC", "schedule_name": "random_5", "is_biased_choice":true,"side_choice": "LEFT", "trial_number":41,"observed_reward":1,"unobserved_reward":1},{"RT":5214,"time": "2018-08-15 01:46:15pm", "schedule_type": "STATIC", "schedule_name": "random_5", "is_biased_choice":false,"side_choice": "RIGHT", "trial_number":42,"observed_reward":0,"unobserved_reward":0},{"RT":2683,"time": "2018-08-15 01:46:18pm", "schedule_type": "STATIC", "schedule_name": "random_5", "is_biased_choice":true,"side_choice": "LEFT", "trial_number":43,"observed_reward":0,"unobserved_reward":1},{"RT":2967,"time": "2018-08-15 01:46:21pm", "schedule_type": "STATIC", "schedule_name": "random_5", "is_biased_choice":true,"side_choice": "LEFT", "trial_number":44,"observed_reward":1,"unobserved_reward":0},{"RT":3132,"time": "2018-08-15 01:46:26pm", "schedule_type": "STATIC", "schedule_name": "random_5", "is_biased_choice":false,"side_choice": "RIGHT", "trial_number":45,"observed_reward":0,"unobserved_reward":0},{"RT":4668,"time": "2018-08-15 01:46:29pm", "schedule_type": "STATIC", "schedule_name": "random_5", "is_biased_choice":true,"side_choice": "LEFT", "trial_number":46,"observed_reward":0,"unobserved_reward":0},{"RT":4149,"time": "2018-08-15 01:46:33pm", "schedule_type": "STATIC", "schedule_name": "random_5", "is_biased_choice":false,"side_choice": "RIGHT", "trial_number":47,"observed_reward":1,"unobserved_reward":1},{"RT":4900,"time": "2018-08-15 01:46:38pm", "schedule_type": "STATIC", "schedule_name": "random_5", "is_biased_choice":true,"side_choice": "LEFT", "trial_number":48,"observed_reward":0,"unobserved_reward":0},{"RT":2917,"time": "2018-08-15 01:46:41pm", "schedule_type": "STATIC", "schedule_name": "random_5", "is_biased_choice":false,"side_choice": "RIGHT", "trial_number":49,"observed_reward":1,"unobserved_reward":0},{"RT":4448,"time": "2018-08-15 01:46:45pm", "schedule_type": "STATIC", "schedule_name": "random_5", "is_biased_choice":false,"side_choice": "RIGHT", "trial_number":50,"observed_reward":0,"unobserved_reward":0},{"RT":2402,"time": "2018-08-15 01:46:47pm", "schedule_type": "STATIC", "schedule_name": "random_5", "is_biased_choice":true,"side_choice": "LEFT", "trial_number":51,"observed_reward":0,"unobserved_reward":0},{"RT":3305,"time": "2018-08-15 01:46:51pm", "schedule_type": "STATIC", "schedule_name": "random_5", "is_biased_choice":true,"side_choice": "LEFT", "trial_number":52,"observed_reward":1,"unobserved_reward":0},{"RT":3693,"time": "2018-08-15 01:46:54pm", "schedule_type": "STATIC", "schedule_name": "random_5", "is_biased_choice":false,"side_choice": "RIGHT", "trial_number":53,"observed_reward":1,"unobserved_reward":0},{"RT":3066,"time": "2018-08-15 01:46:58pm", "schedule_type": "STATIC", "schedule_name": "random_5", "is_biased_choice":false,"side_choice": "RIGHT", "trial_number":54,"observed_reward":0,"unobserved_reward":0},{"RT":2619,"time": "2018-08-15 01:47:00pm", "schedule_type": "STATIC", "schedule_name": "random_5", "is_biased_choice":false,"side_choice": "RIGHT", "trial_number":55,"observed_reward":1,"unobserved_reward":0},{"RT":2757,"time": "2018-08-15 01:47:03pm", "schedule_type": "STATIC", "schedule_name": "random_5", "is_biased_choice":false,"side_choice": "RIGHT", "trial_number":56,"observed_reward":0,"unobserved_reward":0},{"RT":2427,"time": "2018-08-15 01:47:05pm", "schedule_type": "STATIC", "schedule_name": "random_5", "is_biased_choice":true,"side_choice": "LEFT", "trial_number":57,"observed_reward":1,"unobserved_reward":0},{"RT":3498,"time": "2018-08-15 01:47:09pm", "schedule_type": "STATIC", "schedule_name": "random_5", "is_biased_choice":true,"side_choice": "LEFT", "trial_number":58,"observed_reward":0,"unobserved_reward":0},{"RT":2617,"time": "2018-08-15 01:47:11pm", "schedule_type": "STATIC", "schedule_name": "random_5", "is_biased_choice":true,"side_choice": "LEFT", "trial_number":59,"observed_reward":0,"unobserved_reward":0},{"RT":3346,"time": "2018-08-15 01:47:15pm", "schedule_type": "STATIC", "schedule_name": "random_5", "is_biased_choice":true,"side_choice": "LEFT", "trial_number":60,"observed_reward":0,"unobserved_reward":1},{"RT":2760,"time": "2018-08-15 01:47:17pm", "schedule_type": "STATIC", "schedule_name": "random_5", "is_biased_choice":true,"side_choice": "LEFT", "trial_number":61,"observed_reward":0,"unobserved_reward":0},{"RT":2977,"time": "2018-08-15 01:47:20pm", "schedule_type": "STATIC", "schedule_name": "random_5", "is_biased_choice":false,"side_choice": "RIGHT", "trial_number":62,"observed_reward":0,"unobserved_reward":0},{"RT":2400,"time": "2018-08-15 01:47:23pm", "schedule_type": "STATIC", "schedule_name": "random_5", "is_biased_choice":true,"side_choice": "LEFT", "trial_number":63,"observed_reward":0,"unobserved_reward":0},{"RT":2800,"time": "2018-08-15 01:47:27pm", "schedule_type": "STATIC", "schedule_name": "random_5", "is_biased_choice":true,"side_choice": "LEFT", "trial_number":64,"observed_reward":0,"unobserved_reward":1},{"RT":3357,"time": "2018-08-15 01:47:29pm", "schedule_type": "STATIC", "schedule_name": "random_5", "is_biased_choice":false,"side_choice": "RIGHT", "trial_number":65,"observed_reward":0,"unobserved_reward":1},{"RT":2994,"time": "2018-08-15 01:47:32pm", "schedule_type": "STATIC", "schedule_name": "random_5", "is_biased_choice":false,"side_choice": "RIGHT", "trial_number":66,"observed_reward":0,"unobserved_reward":0},{"RT":2417,"time": "2018-08-15 01:47:34pm", "schedule_type": "STATIC", "schedule_name": "random_5", "is_biased_choice":true,"side_choice": "LEFT", "trial_number":67,"observed_reward":0,"unobserved_reward":1},{"RT":2470,"time": "2018-08-15 01:47:37pm", "schedule_type": "STATIC", "schedule_name": "random_5", "is_biased_choice":false,"side_choice": "RIGHT", "trial_number":68,"observed_reward":0,"unobserved_reward":0},{"RT":2761,"time": "2018-08-15 01:47:40pm", "schedule_type": "STATIC", "schedule_name": "random_5", "is_biased_choice":true,"side_choice": "LEFT", "trial_number":69,"observed_reward":0,"unobserved_reward":0},{"RT":18933,"time": "2018-08-15 01:47:59pm", "schedule_type": "STATIC", "schedule_name": "random_5", "is_biased_choice":true,"side_choice": "LEFT", "trial_number":70,"observed_reward":0,"unobserved_reward":1},{"RT":3066,"time": "2018-08-15 01:48:02pm", "schedule_type": "STATIC", "schedule_name": "random_5", "is_biased_choice":true,"side_choice": "LEFT", "trial_number":71,"observed_reward":0,"unobserved_reward":0},{"RT":2385,"time": "2018-08-15 01:48:04pm", "schedule_type": "STATIC", "schedule_name": "random_5", "is_biased_choice":false,"side_choice": "RIGHT", "trial_number":72,"observed_reward":0,"unobserved_reward":1},{"RT":2467,"time": "2018-08-15 01:48:06pm", "schedule_type": "STATIC", "schedule_name": "random_5", "is_biased_choice":true,"side_choice": "LEFT", "trial_number":73,"observed_reward":1,"unobserved_reward":0},{"RT":3277,"time": "2018-08-15 01:48:10pm", "schedule_type": "STATIC", "schedule_name": "random_5", "is_biased_choice":true,"side_choice": "LEFT", "trial_number":74,"observed_reward":1,"unobserved_reward":0},{"RT":2937,"time": "2018-08-15 01:48:13pm", "schedule_type": "STATIC", "schedule_name": "random_5", "is_biased_choice":true,"side_choice": "LEFT", "trial_number":75,"observed_reward":0,"unobserved_reward":0},{"RT":3035,"time": "2018-08-15 01:48:16pm", "schedule_type": "STATIC", "schedule_name": "random_5", "is_biased_choice":true,"side_choice": "LEFT", "trial_number":76,"observed_reward":0,"unobserved_reward":1},{"RT":2799,"time": "2018-08-15 01:48:19pm", "schedule_type": "STATIC", "schedule_name": "random_5", "is_biased_choice":false,"side_choice": "RIGHT", "trial_number":77,"observed_reward":0,"unobserved_reward":1},{"RT":2404,"time": "2018-08-15 01:48:21pm", "schedule_type": "STATIC", "schedule_name": "random_5", "is_biased_choice":true,"side_choice": "LEFT", "trial_number":78,"observed_reward":0,"unobserved_reward":0},{"RT":2745,"time": "2018-08-15 01:48:24pm", "schedule_type": "STATIC", "schedule_name": "random_5", "is_biased_choice":true,"side_choice": "LEFT", "trial_number":79,"observed_reward":0,"unobserved_reward":0},{"RT":2465,"time": "2018-08-15 01:48:26pm", "schedule_type": "STATIC", "schedule_name": "random_5", "is_biased_choice":true,"side_choice": "LEFT", "trial_number":80,"observed_reward":0,"unobserved_reward":0},{"RT":2616,"time": "2018-08-15 01:48:29pm", "schedule_type": "STATIC", "schedule_name": "random_5", "is_biased_choice":true,"side_choice": "LEFT", "trial_number":81,"observed_reward":0,"unobserved_reward":0},{"RT":2572,"time": "2018-08-15 01:48:31pm", "schedule_type": "STATIC", "schedule_name": "random_5", "is_biased_choice":false,"side_choice": "RIGHT", "trial_number":82,"observed_reward":0,"unobserved_reward":0},{"RT":2414,"time": "2018-08-15 01:48:34pm", "schedule_type": "STATIC", "schedule_name": "random_5", "is_biased_choice":true,"side_choice": "LEFT", "trial_number":83,"observed_reward":0,"unobserved_reward":1},{"RT":2582,"time": "2018-08-15 01:48:36pm", "schedule_type": "STATIC", "schedule_name": "random_5", "is_biased_choice":true,"side_choice": "LEFT", "trial_number":84,"observed_reward":1,"unobserved_reward":0},{"RT":3367,"time": "2018-08-15 01:48:40pm", "schedule_type": "STATIC", "schedule_name": "random_5", "is_biased_choice":false,"side_choice": "RIGHT", "trial_number":85,"observed_reward":0,"unobserved_reward":0},{"RT":2684,"time": "2018-08-15 01:48:42pm", "schedule_type": "STATIC", "schedule_name": "random_5", "is_biased_choice":true,"side_choice": "LEFT", "trial_number":86,"observed_reward":0,"unobserved_reward":0},{"RT":2465,"time": "2018-08-15 01:48:45pm", "schedule_type": "STATIC", "schedule_name": "random_5", "is_biased_choice":false,"side_choice": "RIGHT", "trial_number":87,"observed_reward":0,"unobserved_reward":1},{"RT":2636,"time": "2018-08-15 01:48:47pm", "schedule_type": "STATIC", "schedule_name": "random_5", "is_biased_choice":true,"side_choice": "LEFT", "trial_number":88,"observed_reward":0,"unobserved_reward":0},{"RT":2366,"time": "2018-08-15 01:48:50pm", "schedule_type": "STATIC", "schedule_name": "random_5", "is_biased_choice":true,"side_choice": "LEFT", "trial_number":89,"observed_reward":0,"unobserved_reward":0},{"RT":2697,"time": "2018-08-15 01:48:53pm", "schedule_type": "STATIC", "schedule_name": "random_5", "is_biased_choice":true,"side_choice": "LEFT", "trial_number":90,"observed_reward":1,"unobserved_reward":1},{"RT":2619,"time": "2018-08-15 01:48:55pm", "schedule_type": "STATIC", "schedule_name": "random_5", "is_biased_choice":true,"side_choice": "LEFT", "trial_number":91,"observed_reward":0,"unobserved_reward":0},{"RT":2822,"time": "2018-08-15 01:48:58pm", "schedule_type": "STATIC", "schedule_name": "random_5", "is_biased_choice":true,"side_choice": "LEFT", "trial_number":92,"observed_reward":1,"unobserved_reward":0},{"RT":2593,"time": "2018-08-15 01:49:01pm", "schedule_type": "STATIC", "schedule_name": "random_5", "is_biased_choice":false,"side_choice": "RIGHT", "trial_number":93,"observed_reward":1,"unobserved_reward":0},{"RT":2501,"time": "2018-08-15 01:49:03pm", "schedule_type": "STATIC", "schedule_name": "random_5", "is_biased_choice":false,"side_choice": "RIGHT", "trial_number":94,"observed_reward":0,"unobserved_reward":0},{"RT":2466,"time": "2018-08-15 01:49:06pm", "schedule_type": "STATIC", "schedule_name": "random_5", "is_biased_choice":true,"side_choice": "LEFT", "trial_number":95,"observed_reward":0,"unobserved_reward":0},{"RT":2783,"time": "2018-08-15 01:49:08pm", "schedule_type": "STATIC", "schedule_name": "random_5", "is_biased_choice":true,"side_choice": "LEFT", "trial_number":96,"observed_reward":0,"unobserved_reward":0},{"RT":2637,"time": "2018-08-15 01:49:11pm", "schedule_type": "STATIC", "schedule_name": "random_5", "is_biased_choice":false,"side_choice": "RIGHT", "trial_number":97,"observed_reward":0,"unobserved_reward":0},{"RT":2571,"time": "2018-08-15 01:49:14pm", "schedule_type": "STATIC", "schedule_name": "random_5", "is_biased_choice":true,"side_choice": "LEFT", "trial_number":98,"observed_reward":0,"unobserved_reward":0},{"RT":2725,"time": "2018-08-15 01:49:16pm", "schedule_type": "STATIC", "schedule_name": "random_5", "is_biased_choice":false,"side_choice": "RIGHT", "trial_number":99,"observed_reward":0,"unobserved_reward":0},