[{"RT":2128,"time": "2018-08-15 03:42:07pm", "schedule_type": "STATIC", "schedule_name": "random_5", "is_biased_choice":true,"side_choice": "RIGHT", "trial_number":0,"observed_reward":0,"unobserved_reward":0},{"RT":4361,"time": "2018-08-15 03:42:11pm", "schedule_type": "STATIC", "schedule_name": "random_5", "is_biased_choice":true,"side_choice": "RIGHT", "trial_number":1,"observed_reward":0,"unobserved_reward":1},{"RT":3175,"time": "2018-08-15 03:42:15pm", "schedule_type": "STATIC", "schedule_name": "random_5", "is_biased_choice":false,"side_choice": "LEFT", "trial_number":2,"observed_reward":0,"unobserved_reward":0},{"RT":3454,"time": "2018-08-15 03:42:18pm", "schedule_type": "STATIC", "schedule_name": "random_5", "is_biased_choice":false,"side_choice": "LEFT", "trial_number":3,"observed_reward":0,"unobserved_reward":0},{"RT":3722,"time": "2018-08-15 03:42:22pm", "schedule_type": "STATIC", "schedule_name": "random_5", "is_biased_choice":true,"side_choice": "RIGHT", "trial_number":4,"observed_reward":0,"unobserved_reward":1},{"RT":3169,"time": "2018-08-15 03:42:25pm", "schedule_type": "STATIC", "schedule_name": "random_5", "is_biased_choice":false,"side_choice": "LEFT", "trial_number":5,"observed_reward":1,"unobserved_reward":0},{"RT":4071,"time": "2018-08-15 03:42:29pm", "schedule_type": "STATIC", "schedule_name": "random_5", "is_biased_choice":false,"side_choice": "LEFT", "trial_number":6,"observed_reward":0,"unobserved_reward":1},{"RT":4591,"time": "2018-08-15 03:42:34pm", "schedule_type": "STATIC", "schedule_name": "random_5", "is_biased_choice":false,"side_choice": "LEFT", "trial_number":7,"observed_reward":0,"unobserved_reward":0},{"RT":4059,"time": "2018-08-15 03:42:38pm", "schedule_type": "STATIC", "schedule_name": "random_5", "is_biased_choice":true,"side_choice": "RIGHT", "trial_number":8,"observed_reward":1,"unobserved_reward":1},{"RT":5865,"time": "2018-08-15 03:42:43pm", "schedule_type": "STATIC", "schedule_name": "random_5", "is_biased_choice":false,"side_choice": "LEFT", "trial_number":9,"observed_reward":0,"unobserved_reward":1},{"RT":3270,"time": "2018-08-15 03:42:47pm", "schedule_type": "STATIC", "schedule_name": "random_5", "is_biased_choice":true,"side_choice": "RIGHT", "trial_number":10,"observed_reward":1,"unobserved_reward":1},{"RT":4705,"time": "2018-08-15 03:42:51pm", "schedule_type": "STATIC", "schedule_name": "random_5", "is_biased_choice":false,"side_choice": "LEFT", "trial_number":11,"observed_reward":0,"unobserved_reward":0},{"RT":4054,"time": "2018-08-15 03:42:56pm", "schedule_type": "STATIC", "schedule_name": "random_5", "is_biased_choice":true,"side_choice": "RIGHT", "trial_number":12,"observed_reward":0,"unobserved_reward":0},{"RT":3179,"time": "2018-08-15 03:42:59pm", "schedule_type": "STATIC", "schedule_name": "random_5", "is_biased_choice":false,"side_choice": "LEFT", "trial_number":13,"observed_reward":0,"unobserved_reward":0},{"RT":3491,"time": "2018-08-15 03:43:02pm", "schedule_type": "STATIC", "schedule_name": "random_5", "is_biased_choice":true,"side_choice": "RIGHT", "trial_number":14,"observed_reward":0,"unobserved_reward":0},{"RT":3292,"time": "2018-08-15 03:43:05pm", "schedule_type": "STATIC", "schedule_name": "random_5", "is_biased_choice":false,"side_choice": "LEFT", "trial_number":15,"observed_reward":0,"unobserved_reward":0},{"RT":3383,"time": "2018-08-15 03:43:09pm", "schedule_type": "STATIC", "schedule_name": "random_5", "is_biased_choice":true,"side_choice": "RIGHT", "trial_number":16,"observed_reward":0,"unobserved_reward":0},{"RT":3504,"time": "2018-08-15 03:43:12pm", "schedule_type": "STATIC", "schedule_name": "random_5", "is_biased_choice":true,"side_choice": "RIGHT", "trial_number":17,"observed_reward":1,"unobserved_reward":0},{"RT":3577,"time": "2018-08-15 03:43:16pm", "schedule_type": "STATIC", "schedule_name": "random_5", "is_biased_choice":true,"side_choice": "RIGHT", "trial_number":18,"observed_reward":0,"unobserved_reward":0},{"RT":3608,"time": "2018-08-15 03:43:20pm", "schedule_type": "STATIC", "schedule_name": "random_5", "is_biased_choice":true,"side_choice": "RIGHT", "trial_number":19,"observed_reward":0,"unobserved_reward":0},{"RT":3055,"time": "2018-08-15 03:43:23pm", "schedule_type": "STATIC", "schedule_name": "random_5", "is_biased_choice":true,"side_choice": "RIGHT", "trial_number":20,"observed_reward":0,"unobserved_reward":1},{"RT":3336,"time": "2018-08-15 03:43:26pm", "schedule_type": "STATIC", "schedule_name": "random_5", "is_biased_choice":true,"side_choice": "RIGHT", "trial_number":21,"observed_reward":0,"unobserved_reward":1},{"RT":3009,"time": "2018-08-15 03:43:29pm", "schedule_type": "STATIC", "schedule_name": "random_5", "is_biased_choice":false,"side_choice": "LEFT", "trial_number":22,"observed_reward":0,"unobserved_reward":0},{"RT":3255,"time": "2018-08-15 03:43:32pm", "schedule_type": "STATIC", "schedule_name": "random_5", "is_biased_choice":true,"side_choice": "RIGHT", "trial_number":23,"observed_reward":0,"unobserved_reward":1},{"RT":6006,"time": "2018-08-15 03:43:38pm", "schedule_type": "STATIC", "schedule_name": "random_5", "is_biased_choice":false,"side_choice": "LEFT", "trial_number":24,"observed_reward":0,"unobserved_reward":0},{"RT":3115,"time": "2018-08-15 03:43:41pm", "schedule_type": "STATIC", "schedule_name": "random_5", "is_biased_choice":true,"side_choice": "RIGHT", "trial_number":25,"observed_reward":0,"unobserved_reward":0},{"RT":7252,"time": "2018-08-15 03:43:49pm", "schedule_type": "STATIC", "schedule_name": "random_5", "is_biased_choice":false,"side_choice": "LEFT", "trial_number":26,"observed_reward":0,"unobserved_reward":0},{"RT":3516,"time": "2018-08-15 03:43:52pm", "schedule_type": "STATIC", "schedule_name": "random_5", "is_biased_choice":true,"side_choice": "RIGHT", "trial_number":27,"observed_reward":1,"unobserved_reward":1},{"RT":3270,"time": "2018-08-15 03:43:55pm", "schedule_type": "STATIC", "schedule_name": "random_5", "is_biased_choice":true,"side_choice": "RIGHT", "trial_number":28,"observed_reward":0,"unobserved_reward":0},{"RT":3027,"time": "2018-08-15 03:43:58pm", "schedule_type": "STATIC", "schedule_name": "random_5", "is_biased_choice":true,"side_choice": "RIGHT", "trial_number":29,"observed_reward":0,"unobserved_reward":0},{"RT":3158,"time": "2018-08-15 03:44:02pm", "schedule_type": "STATIC", "schedule_name": "random_5", "is_biased_choice":true,"side_choice": "RIGHT", "trial_number":30,"observed_reward":0,"unobserved_reward":0},{"RT":3105,"time": "2018-08-15 03:44:05pm", "schedule_type": "STATIC", "schedule_name": "random_5", "is_biased_choice":true,"side_choice": "RIGHT", "trial_number":31,"observed_reward":0,"unobserved_reward":0},{"RT":3041,"time": "2018-08-15 03:44:08pm", "schedule_type": "STATIC", "schedule_name": "random_5", "is_biased_choice":true,"side_choice": "RIGHT", "trial_number":32,"observed_reward":1,"unobserved_reward":0},{"RT":6582,"time": "2018-08-15 03:44:14pm", "schedule_type": "STATIC", "schedule_name": "random_5", "is_biased_choice":false,"side_choice": "LEFT", "trial_number":33,"observed_reward":1,"unobserved_reward":0},{"RT":4737,"time": "2018-08-15 03:44:19pm", "schedule_type": "STATIC", "schedule_name": "random_5", "is_biased_choice":true,"side_choice": "RIGHT", "trial_number":34,"observed_reward":0,"unobserved_reward":0},{"RT":3817,"time": "2018-08-15 03:44:23pm", "schedule_type": "STATIC", "schedule_name": "random_5", "is_biased_choice":true,"side_choice": "RIGHT", "trial_number":35,"observed_reward":1,"unobserved_reward":0},{"RT":4351,"time": "2018-08-15 03:44:27pm", "schedule_type": "STATIC", "schedule_name": "random_5", "is_biased_choice":true,"side_choice": "RIGHT", "trial_number":36,"observed_reward":1,"unobserved_reward":0},{"RT":3752,"time": "2018-08-15 03:44:31pm", "schedule_type": "STATIC", "schedule_name": "random_5", "is_biased_choice":false,"side_choice": "LEFT", "trial_number":37,"observed_reward":0,"unobserved_reward":1},{"RT":3334,"time": "2018-08-15 03:44:34pm", "schedule_type": "STATIC", "schedule_name": "random_5", "is_biased_choice":true,"side_choice": "RIGHT", "trial_number":38,"observed_reward":0,"unobserved_reward":0},{"RT":4067,"time": "2018-08-15 03:44:38pm", "schedule_type": "STATIC", "schedule_name": "random_5", "is_biased_choice":false,"side_choice": "LEFT", "trial_number":39,"observed_reward":0,"unobserved_reward":0},{"RT":3390,"time": "2018-08-15 03:44:42pm", "schedule_type": "STATIC", "schedule_name": "random_5", "is_biased_choice":true,"side_choice": "RIGHT", "trial_number":40,"observed_reward":1,"unobserved_reward":1},{"RT":3497,"time": "2018-08-15 03:44:45pm", "schedule_type": "STATIC", "schedule_name": "random_5", "is_biased_choice":false,"side_choice": "LEFT", "trial_number":41,"observed_reward":1,"unobserved_reward":1},{"RT":3239,"time": "2018-08-15 03:44:48pm", "schedule_type": "STATIC", "schedule_name": "random_5", "is_biased_choice":true,"side_choice": "RIGHT", "trial_number":42,"observed_reward":0,"unobserved_reward":0},{"RT":3098,"time": "2018-08-15 03:44:52pm", "schedule_type": "STATIC", "schedule_name": "random_5", "is_biased_choice":false,"side_choice": "LEFT", "trial_number":43,"observed_reward":1,"unobserved_reward":0},{"RT":11694,"time": "2018-08-15 03:45:03pm", "schedule_type": "STATIC", "schedule_name": "random_5", "is_biased_choice":true,"side_choice": "RIGHT", "trial_number":44,"observed_reward":1,"unobserved_reward":0},{"RT":5122,"time": "2018-08-15 03:45:08pm", "schedule_type": "STATIC", "schedule_name": "random_5", "is_biased_choice":false,"side_choice": "LEFT", "trial_number":45,"observed_reward":0,"unobserved_reward":0},{"RT":4248,"time": "2018-08-15 03:45:13pm", "schedule_type": "STATIC", "schedule_name": "random_5", "is_biased_choice":true,"side_choice": "RIGHT", "trial_number":46,"observed_reward":0,"unobserved_reward":0},{"RT":3440,"time": "2018-08-15 03:45:16pm", "schedule_type": "STATIC", "schedule_name": "random_5", "is_biased_choice":true,"side_choice": "RIGHT", "trial_number":47,"observed_reward":1,"unobserved_reward":1},{"RT":3491,"time": "2018-08-15 03:45:20pm", "schedule_type": "STATIC", "schedule_name": "random_5", "is_biased_choice":false,"side_choice": "LEFT", "trial_number":48,"observed_reward":0,"unobserved_reward":0},{"RT":3221,"time": "2018-08-15 03:45:23pm", "schedule_type": "STATIC", "schedule_name": "random_5", "is_biased_choice":true,"side_choice": "RIGHT", "trial_number":49,"observed_reward":0,"unobserved_reward":1},{"RT":3246,"time": "2018-08-15 03:45:26pm", "schedule_type": "STATIC", "schedule_name": "random_5", "is_biased_choice":false,"side_choice": "LEFT", "trial_number":50,"observed_reward":0,"unobserved_reward":0},{"RT":3643,"time": "2018-08-15 03:45:30pm", "schedule_type": "STATIC", "schedule_name": "random_5", "is_biased_choice":false,"side_choice": "LEFT", "trial_number":51,"observed_reward":0,"unobserved_reward":0},{"RT":3212,"time": "2018-08-15 03:45:33pm", "schedule_type": "STATIC", "schedule_name": "random_5", "is_biased_choice":true,"side_choice": "RIGHT", "trial_number":52,"observed_reward":1,"unobserved_reward":0},{"RT":3508,"time": "2018-08-15 03:45:36pm", "schedule_type": "STATIC", "schedule_name": "random_5", "is_biased_choice":false,"side_choice": "LEFT", "trial_number":53,"observed_reward":1,"unobserved_reward":0},{"RT":3710,"time": "2018-08-15 03:45:40pm", "schedule_type": "STATIC", "schedule_name": "random_5", "is_biased_choice":false,"side_choice": "LEFT", "trial_number":54,"observed_reward":0,"unobserved_reward":0},{"RT":3454,"time": "2018-08-15 03:45:44pm", "schedule_type": "STATIC", "schedule_name": "random_5", "is_biased_choice":true,"side_choice": "RIGHT", "trial_number":55,"observed_reward":0,"unobserved_reward":1},{"RT":3330,"time": "2018-08-15 03:45:47pm", "schedule_type": "STATIC", "schedule_name": "random_5", "is_biased_choice":false,"side_choice": "LEFT", "trial_number":56,"observed_reward":0,"unobserved_reward":0},{"RT":3953,"time": "2018-08-15 03:45:51pm", "schedule_type": "STATIC", "schedule_name": "random_5", "is_biased_choice":true,"side_choice": "RIGHT", "trial_number":57,"observed_reward":1,"unobserved_reward":0},{"RT":3199,"time": "2018-08-15 03:45:54pm", "schedule_type": "STATIC", "schedule_name": "random_5", "is_biased_choice":true,"side_choice": "RIGHT", "trial_number":58,"observed_reward":0,"unobserved_reward":0},{"RT":3032,"time": "2018-08-15 03:45:57pm", "schedule_type": "STATIC", "schedule_name": "random_5", "is_biased_choice":true,"side_choice": "RIGHT", "trial_number":59,"observed_reward":0,"unobserved_reward":0},{"RT":3545,"time": "2018-08-15 03:46:01pm", "schedule_type": "STATIC", "schedule_name": "random_5", "is_biased_choice":true,"side_choice": "RIGHT", "trial_number":60,"observed_reward":0,"unobserved_reward":1},{"RT":3559,"time": "2018-08-15 03:46:04pm", "schedule_type": "STATIC", "schedule_name": "random_5", "is_biased_choice":false,"side_choice": "LEFT", "trial_number":61,"observed_reward":0,"unobserved_reward":0},{"RT":4392,"time": "2018-08-15 03:46:09pm", "schedule_type": "STATIC", "schedule_name": "random_5", "is_biased_choice":true,"side_choice": "RIGHT", "trial_number":62,"observed_reward":0,"unobserved_reward":0},{"RT":3200,"time": "2018-08-15 03:46:12pm", "schedule_type": "STATIC", "schedule_name": "random_5", "is_biased_choice":false,"side_choice": "LEFT", "trial_number":63,"observed_reward":0,"unobserved_reward":0},{"RT":3234,"time": "2018-08-15 03:46:15pm", "schedule_type": "STATIC", "schedule_name": "random_5", "is_biased_choice":false,"side_choice": "LEFT", "trial_number":64,"observed_reward":1,"unobserved_reward":0},{"RT":6336,"time": "2018-08-15 03:46:21pm", "schedule_type": "STATIC", "schedule_name": "random_5", "is_biased_choice":true,"side_choice": "RIGHT", "trial_number":65,"observed_reward":1,"unobserved_reward":0},{"RT":3871,"time": "2018-08-15 03:46:25pm", "schedule_type": "STATIC", "schedule_name": "random_5", "is_biased_choice":true,"side_choice": "RIGHT", "trial_number":66,"observed_reward":0,"unobserved_reward":0},{"RT":3182,"time": "2018-08-15 03:46:28pm", "schedule_type": "STATIC", "schedule_name": "random_5", "is_biased_choice":false,"side_choice": "LEFT", "trial_number":67,"observed_reward":1,"unobserved_reward":0},{"RT":3323,"time": "2018-08-15 03:46:32pm", "schedule_type": "STATIC", "schedule_name": "random_5", "is_biased_choice":true,"side_choice": "RIGHT", "trial_number":68,"observed_reward":0,"unobserved_reward":0},{"RT":3199,"time": "2018-08-15 03:46:35pm", "schedule_type": "STATIC", "schedule_name": "random_5", "is_biased_choice":true,"side_choice": "RIGHT", "trial_number":69,"observed_reward":0,"unobserved_reward":0},{"RT":3190,"time": "2018-08-15 03:46:38pm", "schedule_type": "STATIC", "schedule_name": "random_5", "is_biased_choice":true,"side_choice": "RIGHT", "trial_number":70,"observed_reward":0,"unobserved_reward":1},{"RT":3030,"time": "2018-08-15 03:46:41pm", "schedule_type": "STATIC", "schedule_name": "random_5", "is_biased_choice":true,"side_choice": "RIGHT", "trial_number":71,"observed_reward":0,"unobserved_reward":0},{"RT":3205,"time": "2018-08-15 03:46:44pm", "schedule_type": "STATIC", "schedule_name": "random_5", "is_biased_choice":false,"side_choice": "LEFT", "trial_number":72,"observed_reward":0,"unobserved_reward":1},{"RT":3336,"time": "2018-08-15 03:46:48pm", "schedule_type": "STATIC", "schedule_name": "random_5", "is_biased_choice":true,"side_choice": "RIGHT", "trial_number":73,"observed_reward":1,"unobserved_reward":0},{"RT":3214,"time": "2018-08-15 03:46:51pm", "schedule_type": "STATIC", "schedule_name": "random_5", "is_biased_choice":true,"side_choice": "RIGHT", "trial_number":74,"observed_reward":1,"unobserved_reward":0},{"RT":4385,"time": "2018-08-15 03:46:55pm", "schedule_type": "STATIC", "schedule_name": "random_5", "is_biased_choice":true,"side_choice": "RIGHT", "trial_number":75,"observed_reward":0,"unobserved_reward":0},{"RT":3408,"time": "2018-08-15 03:46:59pm", "schedule_type": "STATIC", "schedule_name": "random_5", "is_biased_choice":false,"side_choice": "LEFT", "trial_number":76,"observed_reward":1,"unobserved_reward":0},{"RT":3345,"time": "2018-08-15 03:47:02pm", "schedule_type": "STATIC", "schedule_name": "random_5", "is_biased_choice":true,"side_choice": "RIGHT", "trial_number":77,"observed_reward":1,"unobserved_reward":0},{"RT":3165,"time": "2018-08-15 03:47:05pm", "schedule_type": "STATIC", "schedule_name": "random_5", "is_biased_choice":true,"side_choice": "RIGHT", "trial_number":78,"observed_reward":0,"unobserved_reward":0},{"RT":3771,"time": "2018-08-15 03:47:09pm", "schedule_type": "STATIC", "schedule_name": "random_5", "is_biased_choice":false,"side_choice": "LEFT", "trial_number":79,"observed_reward":0,"unobserved_reward":0},{"RT":2951,"time": "2018-08-15 03:47:12pm", "schedule_type": "STATIC", "schedule_name": "random_5", "is_biased_choice":true,"side_choice": "RIGHT", "trial_number":80,"observed_reward":0,"unobserved_reward":0},{"RT":3551,"time": "2018-08-15 03:47:15pm", "schedule_type": "STATIC", "schedule_name": "random_5", "is_biased_choice":false,"side_choice": "LEFT", "trial_number":81,"observed_reward":0,"unobserved_reward":0},{"RT":3114,"time": "2018-08-15 03:47:19pm", "schedule_type": "STATIC", "schedule_name": "random_5", "is_biased_choice":true,"side_choice": "RIGHT", "trial_number":82,"observed_reward":0,"unobserved_reward":0},{"RT":3225,"time": "2018-08-15 03:47:22pm", "schedule_type": "STATIC", "schedule_name": "random_5", "is_biased_choice":true,"side_choice": "RIGHT", "trial_number":83,"observed_reward":0,"unobserved_reward":1},{"RT":3208,"time": "2018-08-15 03:47:25pm", "schedule_type": "STATIC", "schedule_name": "random_5", "is_biased_choice":true,"side_choice": "RIGHT", "trial_number":84,"observed_reward":1,"unobserved_reward":0},{"RT":3896,"time": "2018-08-15 03:47:29pm", "schedule_type": "STATIC", "schedule_name": "random_5", "is_biased_choice":false,"side_choice": "LEFT", "trial_number":85,"observed_reward":0,"unobserved_reward":0},{"RT":3057,"time": "2018-08-15 03:47:32pm", "schedule_type": "STATIC", "schedule_name": "random_5", "is_biased_choice":true,"side_choice": "RIGHT", "trial_number":86,"observed_reward":0,"unobserved_reward":0},{"RT":3160,"time": "2018-08-15 03:47:35pm", "schedule_type": "STATIC", "schedule_name": "random_5", "is_biased_choice":true,"side_choice": "RIGHT", "trial_number":87,"observed_reward":1,"unobserved_reward":0},{"RT":3198,"time": "2018-08-15 03:47:38pm", "schedule_type": "STATIC", "schedule_name": "random_5", "is_biased_choice":true,"side_choice": "RIGHT", "trial_number":88,"observed_reward":0,"unobserved_reward":0},{"RT":3136,"time": "2018-08-15 03:47:41pm", "schedule_type": "STATIC", "schedule_name": "random_5", "is_biased_choice":false,"side_choice": "LEFT", "trial_number":89,"observed_reward":0,"unobserved_reward":0},{"RT":3281,"time": "2018-08-15 03:47:45pm", "schedule_type": "STATIC", "schedule_name": "random_5", "is_biased_choice":true,"side_choice": "RIGHT", "trial_number":90,"observed_reward":1,"unobserved_reward":1},{"RT":3255,"time": "2018-08-15 03:47:48pm", "schedule_type": "STATIC", "schedule_name": "random_5", "is_biased_choice":true,"side_choice": "RIGHT", "trial_number":91,"observed_reward":0,"unobserved_reward":0},{"RT":3105,"time": "2018-08-15 03:47:51pm", "schedule_type": "STATIC", "schedule_name": "random_5", "is_biased_choice":true,"side_choice": "RIGHT", "trial_number":92,"observed_reward":1,"unobserved_reward":0},{"RT":4248,"time": "2018-08-15 03:47:55pm", "schedule_type": "STATIC", "schedule_name": "random_5", "is_biased_choice":false,"side_choice": "LEFT", "trial_number":93,"observed_reward":1,"unobserved_reward":0},{"RT":6023,"time": "2018-08-15 03:48:01pm", "schedule_type": "STATIC", "schedule_name": "random_5", "is_biased_choice":true,"side_choice": "RIGHT", "trial_number":94,"observed_reward":0,"unobserved_reward":0},{"RT":3177,"time": "2018-08-15 03:48:05pm", "schedule_type": "STATIC", "schedule_name": "random_5", "is_biased_choice":false,"side_choice": "LEFT", "trial_number":95,"observed_reward":0,"unobserved_reward":0},{"RT":3807,"time": "2018-08-15 03:48:08pm", "schedule_type": "STATIC", "schedule_name": "random_5", "is_biased_choice":false,"side_choice": "LEFT", "trial_number":96,"observed_reward":0,"unobserved_reward":0},{"RT":3177,"time": "2018-08-15 03:48:12pm", "schedule_type": "STATIC", "schedule_name": "random_5", "is_biased_choice":true,"side_choice": "RIGHT", "trial_number":97,"observed_reward":0,"unobserved_reward":0},{"RT":3432,"time": "2018-08-15 03:48:15pm", "schedule_type": "STATIC", "schedule_name": "random_5", "is_biased_choice":true,"side_choice": "RIGHT", "trial_number":98,"observed_reward":0,"unobserved_reward":0},