[{"RT":3731,"time": "2018-07-29 03:48:21pm", "schedule_type": "STATIC", "schedule_name": "random_17", "is_biased_choice":true,"side_choice": "RIGHT", "trial_number":0,"observed_reward":0,"unobserved_reward":0},{"RT":4684,"time": "2018-07-29 03:48:25pm", "schedule_type": "STATIC", "schedule_name": "random_17", "is_biased_choice":true,"side_choice": "RIGHT", "trial_number":1,"observed_reward":0,"unobserved_reward":0},{"RT":2915,"time": "2018-07-29 03:48:32pm", "schedule_type": "STATIC", "schedule_name": "random_17", "is_biased_choice":true,"side_choice": "RIGHT", "trial_number":2,"observed_reward":0,"unobserved_reward":0},{"RT":3682,"time": "2018-07-29 03:48:35pm", "schedule_type": "STATIC", "schedule_name": "random_17", "is_biased_choice":true,"side_choice": "RIGHT", "trial_number":3,"observed_reward":1,"unobserved_reward":0},{"RT":3003,"time": "2018-07-29 03:48:38pm", "schedule_type": "STATIC", "schedule_name": "random_17", "is_biased_choice":true,"side_choice": "RIGHT", "trial_number":4,"observed_reward":0,"unobserved_reward":0},{"RT":2795,"time": "2018-07-29 03:48:41pm", "schedule_type": "STATIC", "schedule_name": "random_17", "is_biased_choice":true,"side_choice": "RIGHT", "trial_number":5,"observed_reward":0,"unobserved_reward":0},{"RT":2732,"time": "2018-07-29 03:48:44pm", "schedule_type": "STATIC", "schedule_name": "random_17", "is_biased_choice":true,"side_choice": "RIGHT", "trial_number":6,"observed_reward":1,"unobserved_reward":0},{"RT":2869,"time": "2018-07-29 03:48:46pm", "schedule_type": "STATIC", "schedule_name": "random_17", "is_biased_choice":true,"side_choice": "RIGHT", "trial_number":7,"observed_reward":0,"unobserved_reward":0},{"RT":2769,"time": "2018-07-29 03:48:50pm", "schedule_type": "STATIC", "schedule_name": "random_17", "is_biased_choice":true,"side_choice": "RIGHT", "trial_number":8,"observed_reward":0,"unobserved_reward":0},{"RT":2955,"time": "2018-07-29 03:48:52pm", "schedule_type": "STATIC", "schedule_name": "random_17", "is_biased_choice":true,"side_choice": "RIGHT", "trial_number":9,"observed_reward":0,"unobserved_reward":1},{"RT":2956,"time": "2018-07-29 03:48:55pm", "schedule_type": "STATIC", "schedule_name": "random_17", "is_biased_choice":true,"side_choice": "RIGHT", "trial_number":10,"observed_reward":1,"unobserved_reward":0},{"RT":2655,"time": "2018-07-29 03:48:58pm", "schedule_type": "STATIC", "schedule_name": "random_17", "is_biased_choice":true,"side_choice": "RIGHT", "trial_number":11,"observed_reward":1,"unobserved_reward":1},{"RT":2993,"time": "2018-07-29 03:49:01pm", "schedule_type": "STATIC", "schedule_name": "random_17", "is_biased_choice":true,"side_choice": "RIGHT", "trial_number":12,"observed_reward":0,"unobserved_reward":0},{"RT":2582,"time": "2018-07-29 03:49:03pm", "schedule_type": "STATIC", "schedule_name": "random_17", "is_biased_choice":true,"side_choice": "RIGHT", "trial_number":13,"observed_reward":1,"unobserved_reward":1},{"RT":2455,"time": "2018-07-29 03:49:06pm", "schedule_type": "STATIC", "schedule_name": "random_17", "is_biased_choice":true,"side_choice": "RIGHT", "trial_number":14,"observed_reward":0,"unobserved_reward":0},{"RT":2593,"time": "2018-07-29 03:49:08pm", "schedule_type": "STATIC", "schedule_name": "random_17", "is_biased_choice":true,"side_choice": "RIGHT", "trial_number":15,"observed_reward":0,"unobserved_reward":0},{"RT":2657,"time": "2018-07-29 03:49:11pm", "schedule_type": "STATIC", "schedule_name": "random_17", "is_biased_choice":true,"side_choice": "RIGHT", "trial_number":16,"observed_reward":0,"unobserved_reward":1},{"RT":854183,"time": "2018-07-29 04:03:26pm", "schedule_type": "STATIC", "schedule_name": "random_17", "is_biased_choice":true,"side_choice": "RIGHT", "trial_number":17,"observed_reward":0,"unobserved_reward":0},{"RT":2398,"time": "2018-07-29 04:03:28pm", "schedule_type": "STATIC", "schedule_name": "random_17", "is_biased_choice":true,"side_choice": "RIGHT", "trial_number":18,"observed_reward":0,"unobserved_reward":0},{"RT":2536,"time": "2018-07-29 04:03:30pm", "schedule_type": "STATIC", "schedule_name": "random_17", "is_biased_choice":true,"side_choice": "RIGHT", "trial_number":19,"observed_reward":1,"unobserved_reward":0},{"RT":2567,"time": "2018-07-29 04:03:33pm", "schedule_type": "STATIC", "schedule_name": "random_17", "is_biased_choice":true,"side_choice": "RIGHT", "trial_number":20,"observed_reward":0,"unobserved_reward":1},{"RT":2660,"time": "2018-07-29 04:03:36pm", "schedule_type": "STATIC", "schedule_name": "random_17", "is_biased_choice":true,"side_choice": "RIGHT", "trial_number":21,"observed_reward":1,"unobserved_reward":0},{"RT":581085,"time": "2018-07-29 04:13:17pm", "schedule_type": "STATIC", "schedule_name": "random_17", "is_biased_choice":true,"side_choice": "RIGHT", "trial_number":22,"observed_reward":0,"unobserved_reward":0},{"RT":2656,"time": "2018-07-29 04:13:19pm", "schedule_type": "STATIC", "schedule_name": "random_17", "is_biased_choice":true,"side_choice": "RIGHT", "trial_number":23,"observed_reward":0,"unobserved_reward":0},{"RT":2849,"time": "2018-07-29 04:13:22pm", "schedule_type": "STATIC", "schedule_name": "random_17", "is_biased_choice":true,"side_choice": "RIGHT", "trial_number":24,"observed_reward":0,"unobserved_reward":1},{"RT":124077,"time": "2018-07-29 04:15:27pm", "schedule_type": "STATIC", "schedule_name": "random_17", "is_biased_choice":true,"side_choice": "RIGHT", "trial_number":25,"observed_reward":0,"unobserved_reward":0},{"RT":2670,"time": "2018-07-29 04:15:29pm", "schedule_type": "STATIC", "schedule_name": "random_17", "is_biased_choice":true,"side_choice": "RIGHT", "trial_number":26,"observed_reward":1,"unobserved_reward":0},{"RT":3610,"time": "2018-07-29 04:15:33pm", "schedule_type": "STATIC", "schedule_name": "random_17", "is_biased_choice":true,"side_choice": "RIGHT", "trial_number":27,"observed_reward":0,"unobserved_reward":0},{"RT":3277,"time": "2018-07-29 04:15:36pm", "schedule_type": "STATIC", "schedule_name": "random_17", "is_biased_choice":true,"side_choice": "RIGHT", "trial_number":28,"observed_reward":0,"unobserved_reward":0},{"RT":2846,"time": "2018-07-29 04:15:42pm", "schedule_type": "STATIC", "schedule_name": "random_17", "is_biased_choice":true,"side_choice": "RIGHT", "trial_number":29,"observed_reward":1,"unobserved_reward":0},{"RT":3498,"time": "2018-07-29 04:15:46pm", "schedule_type": "STATIC", "schedule_name": "random_17", "is_biased_choice":true,"side_choice": "RIGHT", "trial_number":30,"observed_reward":0,"unobserved_reward":1},{"RT":3128,"time": "2018-07-29 04:15:48pm", "schedule_type": "STATIC", "schedule_name": "random_17", "is_biased_choice":true,"side_choice": "RIGHT", "trial_number":31,"observed_reward":1,"unobserved_reward":0},{"RT":3003,"time": "2018-07-29 04:15:51pm", "schedule_type": "STATIC", "schedule_name": "random_17", "is_biased_choice":true,"side_choice": "RIGHT", "trial_number":32,"observed_reward":0,"unobserved_reward":1},{"RT":2806,"time": "2018-07-29 04:15:54pm", "schedule_type": "STATIC", "schedule_name": "random_17", "is_biased_choice":true,"side_choice": "RIGHT", "trial_number":33,"observed_reward":0,"unobserved_reward":1},{"RT":2832,"time": "2018-07-29 04:15:57pm", "schedule_type": "STATIC", "schedule_name": "random_17", "is_biased_choice":true,"side_choice": "RIGHT", "trial_number":34,"observed_reward":0,"unobserved_reward":1},{"RT":2845,"time": "2018-07-29 04:16:00pm", "schedule_type": "STATIC", "schedule_name": "random_17", "is_biased_choice":true,"side_choice": "RIGHT", "trial_number":35,"observed_reward":0,"unobserved_reward":0},{"RT":2941,"time": "2018-07-29 04:16:03pm", "schedule_type": "STATIC", "schedule_name": "random_17", "is_biased_choice":true,"side_choice": "RIGHT", "trial_number":36,"observed_reward":0,"unobserved_reward":0},{"RT":3154,"time": "2018-07-29 04:16:06pm", "schedule_type": "STATIC", "schedule_name": "random_17", "is_biased_choice":true,"side_choice": "RIGHT", "trial_number":37,"observed_reward":1,"unobserved_reward":1},{"RT":477887,"time": "2018-07-29 04:24:04pm", "schedule_type": "STATIC", "schedule_name": "random_17", "is_biased_choice":true,"side_choice": "RIGHT", "trial_number":38,"observed_reward":0,"unobserved_reward":0},{"RT":2857,"time": "2018-07-29 04:24:07pm", "schedule_type": "STATIC", "schedule_name": "random_17", "is_biased_choice":true,"side_choice": "RIGHT", "trial_number":39,"observed_reward":0,"unobserved_reward":0},{"RT":3274,"time": "2018-07-29 04:24:10pm", "schedule_type": "STATIC", "schedule_name": "random_17", "is_biased_choice":true,"side_choice": "RIGHT", "trial_number":40,"observed_reward":0,"unobserved_reward":0},{"RT":2743,"time": "2018-07-29 04:24:13pm", "schedule_type": "STATIC", "schedule_name": "random_17", "is_biased_choice":true,"side_choice": "RIGHT", "trial_number":41,"observed_reward":0,"unobserved_reward":1},{"RT":2729,"time": "2018-07-29 04:24:16pm", "schedule_type": "STATIC", "schedule_name": "random_17", "is_biased_choice":true,"side_choice": "RIGHT", "trial_number":42,"observed_reward":0,"unobserved_reward":0},{"RT":4399,"time": "2018-07-29 04:24:21pm", "schedule_type": "STATIC", "schedule_name": "random_17", "is_biased_choice":true,"side_choice": "RIGHT", "trial_number":43,"observed_reward":1,"unobserved_reward":0},{"RT":3458,"time": "2018-07-29 04:24:24pm", "schedule_type": "STATIC", "schedule_name": "random_17", "is_biased_choice":true,"side_choice": "RIGHT", "trial_number":44,"observed_reward":0,"unobserved_reward":0},{"RT":3831,"time": "2018-07-29 04:24:28pm", "schedule_type": "STATIC", "schedule_name": "random_17", "is_biased_choice":true,"side_choice": "RIGHT", "trial_number":45,"observed_reward":0,"unobserved_reward":0},{"RT":2865,"time": "2018-07-29 04:24:30pm", "schedule_type": "STATIC", "schedule_name": "random_17", "is_biased_choice":true,"side_choice": "RIGHT", "trial_number":46,"observed_reward":0,"unobserved_reward":0},{"RT":2729,"time": "2018-07-29 04:24:33pm", "schedule_type": "STATIC", "schedule_name": "random_17", "is_biased_choice":true,"side_choice": "RIGHT", "trial_number":47,"observed_reward":0,"unobserved_reward":0},{"RT":3213,"time": "2018-07-29 04:24:36pm", "schedule_type": "STATIC", "schedule_name": "random_17", "is_biased_choice":true,"side_choice": "RIGHT", "trial_number":48,"observed_reward":0,"unobserved_reward":0},{"RT":3286,"time": "2018-07-29 04:24:39pm", "schedule_type": "STATIC", "schedule_name": "random_17", "is_biased_choice":true,"side_choice": "RIGHT", "trial_number":49,"observed_reward":0,"unobserved_reward":0},{"RT":3525,"time": "2018-07-29 04:24:43pm", "schedule_type": "STATIC", "schedule_name": "random_17", "is_biased_choice":true,"side_choice": "RIGHT", "trial_number":50,"observed_reward":1,"unobserved_reward":0},{"RT":2938,"time": "2018-07-29 04:24:46pm", "schedule_type": "STATIC", "schedule_name": "random_17", "is_biased_choice":true,"side_choice": "RIGHT", "trial_number":51,"observed_reward":0,"unobserved_reward":1},{"RT":3952,"time": "2018-07-29 04:24:50pm", "schedule_type": "STATIC", "schedule_name": "random_17", "is_biased_choice":true,"side_choice": "RIGHT", "trial_number":52,"observed_reward":0,"unobserved_reward":0},{"RT":3064,"time": "2018-07-29 04:24:53pm", "schedule_type": "STATIC", "schedule_name": "random_17", "is_biased_choice":true,"side_choice": "RIGHT", "trial_number":53,"observed_reward":1,"unobserved_reward":0},{"RT":4190,"time": "2018-07-29 04:24:57pm", "schedule_type": "STATIC", "schedule_name": "random_17", "is_biased_choice":true,"side_choice": "RIGHT", "trial_number":54,"observed_reward":0,"unobserved_reward":0},{"RT":2856,"time": "2018-07-29 04:25:04pm", "schedule_type": "STATIC", "schedule_name": "random_17", "is_biased_choice":true,"side_choice": "RIGHT", "trial_number":55,"observed_reward":1,"unobserved_reward":1},{"RT":4328,"time": "2018-07-29 04:25:08pm", "schedule_type": "STATIC", "schedule_name": "random_17", "is_biased_choice":true,"side_choice": "RIGHT", "trial_number":56,"observed_reward":0,"unobserved_reward":1},{"RT":2706,"time": "2018-07-29 04:25:10pm", "schedule_type": "STATIC", "schedule_name": "random_17", "is_biased_choice":true,"side_choice": "RIGHT", "trial_number":57,"observed_reward":0,"unobserved_reward":0},{"RT":405473,"time": "2018-07-29 04:31:57pm", "schedule_type": "STATIC", "schedule_name": "random_17", "is_biased_choice":true,"side_choice": "RIGHT", "trial_number":58,"observed_reward":0,"unobserved_reward":1},{"RT":2435,"time": "2018-07-29 04:31:58pm", "schedule_type": "STATIC", "schedule_name": "random_17", "is_biased_choice":true,"side_choice": "RIGHT", "trial_number":59,"observed_reward":0,"unobserved_reward":1},{"RT":2410,"time": "2018-07-29 04:32:01pm", "schedule_type": "STATIC", "schedule_name": "random_17", "is_biased_choice":true,"side_choice": "RIGHT", "trial_number":60,"observed_reward":0,"unobserved_reward":1},{"RT":2437,"time": "2018-07-29 04:32:03pm", "schedule_type": "STATIC", "schedule_name": "random_17", "is_biased_choice":true,"side_choice": "RIGHT", "trial_number":61,"observed_reward":0,"unobserved_reward":0},{"RT":2724,"time": "2018-07-29 04:32:06pm", "schedule_type": "STATIC", "schedule_name": "random_17", "is_biased_choice":true,"side_choice": "RIGHT", "trial_number":62,"observed_reward":1,"unobserved_reward":0},{"RT":2551,"time": "2018-07-29 04:32:08pm", "schedule_type": "STATIC", "schedule_name": "random_17", "is_biased_choice":true,"side_choice": "RIGHT", "trial_number":63,"observed_reward":0,"unobserved_reward":1},{"RT":2547,"time": "2018-07-29 04:32:11pm", "schedule_type": "STATIC", "schedule_name": "random_17", "is_biased_choice":true,"side_choice": "RIGHT", "trial_number":64,"observed_reward":0,"unobserved_reward":0},{"RT":2678,"time": "2018-07-29 04:32:14pm", "schedule_type": "STATIC", "schedule_name": "random_17", "is_biased_choice":true,"side_choice": "RIGHT", "trial_number":65,"observed_reward":0,"unobserved_reward":0},{"RT":2571,"time": "2018-07-29 04:32:17pm", "schedule_type": "STATIC", "schedule_name": "random_17", "is_biased_choice":true,"side_choice": "RIGHT", "trial_number":66,"observed_reward":0,"unobserved_reward":1},{"RT":2570,"time": "2018-07-29 04:32:19pm", "schedule_type": "STATIC", "schedule_name": "random_17", "is_biased_choice":true,"side_choice": "RIGHT", "trial_number":67,"observed_reward":0,"unobserved_reward":0},{"RT":3151,"time": "2018-07-29 04:32:22pm", "schedule_type": "STATIC", "schedule_name": "random_17", "is_biased_choice":true,"side_choice": "RIGHT", "trial_number":68,"observed_reward":0,"unobserved_reward":1},{"RT":3770,"time": "2018-07-29 04:32:26pm", "schedule_type": "STATIC", "schedule_name": "random_17", "is_biased_choice":true,"side_choice": "RIGHT", "trial_number":69,"observed_reward":0,"unobserved_reward":1},{"RT":2779,"time": "2018-07-29 04:32:29pm", "schedule_type": "STATIC", "schedule_name": "random_17", "is_biased_choice":true,"side_choice": "RIGHT", "trial_number":70,"observed_reward":0,"unobserved_reward":0},{"RT":2754,"time": "2018-07-29 04:32:32pm", "schedule_type": "STATIC", "schedule_name": "random_17", "is_biased_choice":true,"side_choice": "RIGHT", "trial_number":71,"observed_reward":0,"unobserved_reward":0},{"RT":2670,"time": "2018-07-29 04:32:34pm", "schedule_type": "STATIC", "schedule_name": "random_17", "is_biased_choice":true,"side_choice": "RIGHT", "trial_number":72,"observed_reward":0,"unobserved_reward":1},{"RT":2655,"time": "2018-07-29 04:32:37pm", "schedule_type": "STATIC", "schedule_name": "random_17", "is_biased_choice":true,"side_choice": "RIGHT", "trial_number":73,"observed_reward":1,"unobserved_reward":0},{"RT":2756,"time": "2018-07-29 04:32:39pm", "schedule_type": "STATIC", "schedule_name": "random_17", "is_biased_choice":true,"side_choice": "RIGHT", "trial_number":74,"observed_reward":1,"unobserved_reward":0},{"RT":2737,"time": "2018-07-29 04:32:46pm", "schedule_type": "STATIC", "schedule_name": "random_17", "is_biased_choice":true,"side_choice": "RIGHT", "trial_number":75,"observed_reward":0,"unobserved_reward":0},{"RT":3283,"time": "2018-07-29 04:32:49pm", "schedule_type": "STATIC", "schedule_name": "random_17", "is_biased_choice":true,"side_choice": "RIGHT", "trial_number":76,"observed_reward":0,"unobserved_reward":1},{"RT":2557,"time": "2018-07-29 04:32:52pm", "schedule_type": "STATIC", "schedule_name": "random_17", "is_biased_choice":true,"side_choice": "RIGHT", "trial_number":77,"observed_reward":1,"unobserved_reward":0},{"RT":2571,"time": "2018-07-29 04:32:54pm", "schedule_type": "STATIC", "schedule_name": "random_17", "is_biased_choice":true,"side_choice": "RIGHT", "trial_number":78,"observed_reward":0,"unobserved_reward":0},{"RT":2485,"time": "2018-07-29 04:32:57pm", "schedule_type": "STATIC", "schedule_name": "random_17", "is_biased_choice":true,"side_choice": "RIGHT", "trial_number":79,"observed_reward":0,"unobserved_reward":0},{"RT":2557,"time": "2018-07-29 04:32:59pm", "schedule_type": "STATIC", "schedule_name": "random_17", "is_biased_choice":true,"side_choice": "RIGHT", "trial_number":80,"observed_reward":1,"unobserved_reward":0},{"RT":4465,"time": "2018-07-29 04:33:04pm", "schedule_type": "STATIC", "schedule_name": "random_17", "is_biased_choice":true,"side_choice": "RIGHT", "trial_number":81,"observed_reward":1,"unobserved_reward":0},{"RT":2565,"time": "2018-07-29 04:33:06pm", "schedule_type": "STATIC", "schedule_name": "random_17", "is_biased_choice":true,"side_choice": "RIGHT", "trial_number":82,"observed_reward":1,"unobserved_reward":0},{"RT":2558,"time": "2018-07-29 04:33:08pm", "schedule_type": "STATIC", "schedule_name": "random_17", "is_biased_choice":true,"side_choice": "RIGHT", "trial_number":83,"observed_reward":0,"unobserved_reward":0},{"RT":56340,"time": "2018-07-29 04:34:05pm", "schedule_type": "STATIC", "schedule_name": "random_17", "is_biased_choice":true,"side_choice": "RIGHT", "trial_number":84,"observed_reward":0,"unobserved_reward":0},{"RT":2717,"time": "2018-07-29 04:34:08pm", "schedule_type": "STATIC", "schedule_name": "random_17", "is_biased_choice":true,"side_choice": "RIGHT", "trial_number":85,"observed_reward":0,"unobserved_reward":0},{"RT":2569,"time": "2018-07-29 04:34:10pm", "schedule_type": "STATIC", "schedule_name": "random_17", "is_biased_choice":true,"side_choice": "RIGHT", "trial_number":86,"observed_reward":0,"unobserved_reward":0},{"RT":2608,"time": "2018-07-29 04:34:13pm", "schedule_type": "STATIC", "schedule_name": "random_17", "is_biased_choice":true,"side_choice": "RIGHT", "trial_number":87,"observed_reward":0,"unobserved_reward":0},{"RT":2482,"time": "2018-07-29 04:34:15pm", "schedule_type": "STATIC", "schedule_name": "random_17", "is_biased_choice":true,"side_choice": "RIGHT", "trial_number":88,"observed_reward":0,"unobserved_reward":0},{"RT":3239,"time": "2018-07-29 04:34:18pm", "schedule_type": "STATIC", "schedule_name": "random_17", "is_biased_choice":true,"side_choice": "RIGHT", "trial_number":89,"observed_reward":0,"unobserved_reward":0},{"RT":2729,"time": "2018-07-29 04:34:21pm", "schedule_type": "STATIC", "schedule_name": "random_17", "is_biased_choice":true,"side_choice": "RIGHT", "trial_number":90,"observed_reward":0,"unobserved_reward":0},{"RT":2546,"time": "2018-07-29 04:34:24pm", "schedule_type": "STATIC", "schedule_name": "random_17", "is_biased_choice":true,"side_choice": "RIGHT", "trial_number":91,"observed_reward":0,"unobserved_reward":0},{"RT":2670,"time": "2018-07-29 04:34:27pm", "schedule_type": "STATIC", "schedule_name": "random_17", "is_biased_choice":true,"side_choice": "RIGHT", "trial_number":92,"observed_reward":0,"unobserved_reward":0},{"RT":2635,"time": "2018-07-29 04:34:29pm", "schedule_type": "STATIC", "schedule_name": "random_17", "is_biased_choice":true,"side_choice": "RIGHT", "trial_number":93,"observed_reward":1,"unobserved_reward":0},{"RT":2591,"time": "2018-07-29 04:34:32pm", "schedule_type": "STATIC", "schedule_name": "random_17", "is_biased_choice":true,"side_choice": "RIGHT", "trial_number":94,"observed_reward":0,"unobserved_reward":0},{"RT":2589,"time": "2018-07-29 04:34:34pm", "schedule_type": "STATIC", "schedule_name": "random_17", "is_biased_choice":true,"side_choice": "RIGHT", "trial_number":95,"observed_reward":0,"unobserved_reward":0},