trial_number, time, schedule_type, schedule_name, is_biased_choice, side_choice, RT, observed_reward, unobserved_reward, biased_reward, unbiased_reward
0,2018-08-15 03:26:56pm, STATIC, random_17, true, LEFT, 2746, 0, 0, 0, 0
1,2018-08-15 03:26:59pm, STATIC, random_17, true, LEFT, 2697, 0, 0, 0, 0
2,2018-08-15 03:27:01pm, STATIC, random_17, true, LEFT, 2508, 0, 0, 0, 0
3,2018-08-15 03:27:04pm, STATIC, random_17, false, RIGHT, 2165, 0, 1, 1, 0
4,2018-08-15 03:27:07pm, STATIC, random_17, true, LEFT, 2995, 0, 0, 0, 0
5,2018-08-15 03:27:09pm, STATIC, random_17, false, RIGHT, 2233, 0, 0, 0, 0
6,2018-08-15 03:27:12pm, STATIC, random_17, true, LEFT, 2852, 1, 0, 1, 0
7,2018-08-15 03:27:14pm, STATIC, random_17, true, LEFT, 2332, 0, 0, 0, 0
8,2018-08-15 03:27:17pm, STATIC, random_17, true, LEFT, 3101, 0, 0, 0, 0
9,2018-08-15 03:27:20pm, STATIC, random_17, true, LEFT, 2416, 0, 1, 0, 1
10,2018-08-15 03:27:22pm, STATIC, random_17, true, LEFT, 2401, 1, 0, 1, 0
11,2018-08-15 03:27:26pm, STATIC, random_17, true, LEFT, 4241, 1, 1, 1, 1
12,2018-08-15 03:27:29pm, STATIC, random_17, true, LEFT, 2475, 0, 0, 0, 0
13,2018-08-15 03:27:31pm, STATIC, random_17, true, LEFT, 2273, 1, 1, 1, 1
14,2018-08-15 03:27:33pm, STATIC, random_17, true, LEFT, 2252, 0, 0, 0, 0
15,2018-08-15 03:27:36pm, STATIC, random_17, true, LEFT, 2547, 0, 0, 0, 0
16,2018-08-15 03:27:38pm, STATIC, random_17, true, LEFT, 2468, 0, 1, 0, 1
17,2018-08-15 03:27:40pm, STATIC, random_17, true, LEFT, 2269, 0, 0, 0, 0
18,2018-08-15 03:27:43pm, STATIC, random_17, true, LEFT, 2507, 0, 0, 0, 0
19,2018-08-15 03:27:46pm, STATIC, random_17, true, LEFT, 2612, 1, 0, 1, 0
20,2018-08-15 03:27:48pm, STATIC, random_17, true, LEFT, 2298, 0, 1, 0, 1
21,2018-08-15 03:27:50pm, STATIC, random_17, false, RIGHT, 2361, 0, 1, 1, 0
22,2018-08-15 03:27:52pm, STATIC, random_17, false, RIGHT, 2167, 0, 0, 0, 0
23,2018-08-15 03:27:55pm, STATIC, random_17, false, RIGHT, 2238, 0, 0, 0, 0
24,2018-08-15 03:27:59pm, STATIC, random_17, false, RIGHT, 4120, 1, 0, 0, 1
25,2018-08-15 03:28:01pm, STATIC, random_17, false, RIGHT, 2410, 0, 0, 0, 0
26,2018-08-15 03:28:03pm, STATIC, random_17, false, RIGHT, 2009, 0, 1, 1, 0
27,2018-08-15 03:28:06pm, STATIC, random_17, false, RIGHT, 2438, 0, 0, 0, 0
28,2018-08-15 03:28:08pm, STATIC, random_17, false, RIGHT, 1947, 0, 0, 0, 0
29,2018-08-15 03:28:11pm, STATIC, random_17, false, RIGHT, 2935, 0, 1, 1, 0
30,2018-08-15 03:28:13pm, STATIC, random_17, false, RIGHT, 2483, 1, 0, 0, 1
31,2018-08-15 03:28:15pm, STATIC, random_17, false, RIGHT, 2023, 0, 1, 1, 0
32,2018-08-15 03:28:18pm, STATIC, random_17, false, RIGHT, 2754, 1, 0, 0, 1
33,2018-08-15 03:28:20pm, STATIC, random_17, false, RIGHT, 2554, 1, 0, 0, 1
34,2018-08-15 03:28:23pm, STATIC, random_17, false, RIGHT, 2563, 1, 0, 0, 1
35,2018-08-15 03:28:25pm, STATIC, random_17, false, RIGHT, 2045, 0, 0, 0, 0
36,2018-08-15 03:28:27pm, STATIC, random_17, false, RIGHT, 2502, 0, 0, 0, 0
37,2018-08-15 03:28:30pm, STATIC, random_17, false, RIGHT, 2414, 1, 1, 1, 1
38,2018-08-15 03:28:32pm, STATIC, random_17, false, RIGHT, 2193, 0, 0, 0, 0
39,2018-08-15 03:28:34pm, STATIC, random_17, false, RIGHT, 2134, 0, 0, 0, 0
40,2018-08-15 03:28:36pm, STATIC, random_17, false, RIGHT, 2114, 0, 0, 0, 0
41,2018-08-15 03:28:38pm, STATIC, random_17, false, RIGHT, 1995, 1, 0, 0, 1
42,2018-08-15 03:28:41pm, STATIC, random_17, false, RIGHT, 2482, 0, 0, 0, 0
43,2018-08-15 03:28:43pm, STATIC, random_17, false, RIGHT, 2533, 0, 1, 1, 0
44,2018-08-15 03:28:45pm, STATIC, random_17, false, RIGHT, 2185, 0, 0, 0, 0
45,2018-08-15 03:28:48pm, STATIC, random_17, false, RIGHT, 2416, 0, 0, 0, 0
46,2018-08-15 03:28:50pm, STATIC, random_17, false, RIGHT, 2118, 0, 0, 0, 0
47,2018-08-15 03:28:52pm, STATIC, random_17, false, RIGHT, 2151, 0, 0, 0, 0
48,2018-08-15 03:28:54pm, STATIC, random_17, false, RIGHT, 2248, 0, 0, 0, 0
49,2018-08-15 03:28:57pm, STATIC, random_17, false, RIGHT, 2556, 0, 0, 0, 0
50,2018-08-15 03:28:59pm, STATIC, random_17, false, RIGHT, 2015, 0, 1, 1, 0
51,2018-08-15 03:29:02pm, STATIC, random_17, true, LEFT, 2870, 0, 1, 0, 1
52,2018-08-15 03:29:05pm, STATIC, random_17, true, LEFT, 2921, 0, 0, 0, 0
53,2018-08-15 03:29:07pm, STATIC, random_17, true, LEFT, 2105, 1, 0, 1, 0
54,2018-08-15 03:29:09pm, STATIC, random_17, true, LEFT, 2028, 0, 0, 0, 0
55,2018-08-15 03:29:13pm, STATIC, random_17, true, LEFT, 2094, 1, 1, 1, 1
56,2018-08-15 03:29:15pm, STATIC, random_17, true, LEFT, 2536, 0, 1, 0, 1
57,2018-08-15 03:29:16pm, STATIC, random_17, true, LEFT, 2290, 0, 0, 0, 0
58,2018-08-15 03:29:18pm, STATIC, random_17, true, LEFT, 2252, 0, 1, 0, 1
59,2018-08-15 03:29:21pm, STATIC, random_17, true, LEFT, 2597, 0, 1, 0, 1
60,2018-08-15 03:29:23pm, STATIC, random_17, false, RIGHT, 2278, 1, 0, 0, 1
61,2018-08-15 03:29:25pm, STATIC, random_17, false, RIGHT, 2246, 0, 0, 0, 0
62,2018-08-15 03:29:27pm, STATIC, random_17, false, RIGHT, 2170, 0, 1, 1, 0
63,2018-08-15 03:29:30pm, STATIC, random_17, false, RIGHT, 2117, 1, 0, 0, 1
64,2018-08-15 03:29:32pm, STATIC, random_17, false, RIGHT, 2633, 0, 0, 0, 0
65,2018-08-15 03:29:35pm, STATIC, random_17, false, RIGHT, 2481, 0, 0, 0, 0
66,2018-08-15 03:29:37pm, STATIC, random_17, false, RIGHT, 2500, 1, 0, 0, 1
67,2018-08-15 03:29:39pm, STATIC, random_17, false, RIGHT, 2257, 0, 0, 0, 0
68,2018-08-15 03:29:42pm, STATIC, random_17, false, RIGHT, 2480, 1, 0, 0, 1
69,2018-08-15 03:29:46pm, STATIC, random_17, false, RIGHT, 2610, 1, 0, 0, 1
70,2018-08-15 03:29:48pm, STATIC, random_17, false, RIGHT, 2857, 0, 0, 0, 0
71,2018-08-15 03:29:50pm, STATIC, random_17, false, RIGHT, 3186, 0, 0, 0, 0
72,2018-08-15 03:29:53pm, STATIC, random_17, false, RIGHT, 2563, 1, 0, 0, 1
73,2018-08-15 03:29:55pm, STATIC, random_17, false, RIGHT, 2317, 0, 1, 1, 0
74,2018-08-15 03:29:58pm, STATIC, random_17, false, RIGHT, 2325, 0, 1, 1, 0
75,2018-08-15 03:30:00pm, STATIC, random_17, false, RIGHT, 2486, 0, 0, 0, 0
76,2018-08-15 03:30:03pm, STATIC, random_17, false, RIGHT, 2688, 1, 0, 0, 1
77,2018-08-15 03:30:05pm, STATIC, random_17, false, RIGHT, 2580, 0, 1, 1, 0
78,2018-08-15 03:30:08pm, STATIC, random_17, false, RIGHT, 2091, 0, 0, 0, 0
79,2018-08-15 03:30:10pm, STATIC, random_17, false, RIGHT, 2686, 0, 0, 0, 0
80,2018-08-15 03:30:13pm, STATIC, random_17, false, RIGHT, 2615, 0, 1, 1, 0
81,2018-08-15 03:30:16pm, STATIC, random_17, false, RIGHT, 2738, 0, 1, 1, 0
82,2018-08-15 03:30:18pm, STATIC, random_17, false, RIGHT, 2783, 0, 1, 1, 0
83,2018-08-15 03:30:21pm, STATIC, random_17, false, RIGHT, 2601, 0, 0, 0, 0
84,2018-08-15 03:30:24pm, STATIC, random_17, false, RIGHT, 2613, 0, 0, 0, 0
85,2018-08-15 03:30:26pm, STATIC, random_17, false, RIGHT, 2226, 0, 0, 0, 0
86,2018-08-15 03:30:28pm, STATIC, random_17, false, RIGHT, 2082, 0, 0, 0, 0
87,2018-08-15 03:30:30pm, STATIC, random_17, false, RIGHT, 2280, 0, 0, 0, 0
88,2018-08-15 03:30:32pm, STATIC, random_17, false, RIGHT, 2195, 0, 0, 0, 0
89,2018-08-15 03:30:35pm, STATIC, random_17, false, RIGHT, 2250, 0, 0, 0, 0
90,2018-08-15 03:30:37pm, STATIC, random_17, false, RIGHT, 2506, 0, 0, 0, 0
91,2018-08-15 03:30:40pm, STATIC, random_17, false, RIGHT, 2409, 0, 0, 0, 0
92,2018-08-15 03:30:43pm, STATIC, random_17, false, RIGHT, 3037, 0, 0, 0, 0
93,2018-08-15 03:30:45pm, STATIC, random_17, false, RIGHT, 2518, 0, 1, 1, 0
94,2018-08-15 03:30:48pm, STATIC, random_17, false, RIGHT, 2477, 0, 0, 0, 0
95,2018-08-15 03:30:50pm, STATIC, random_17, false, RIGHT, 2488, 0, 0, 0, 0
96,2018-08-15 03:30:53pm, STATIC, random_17, false, RIGHT, 2501, 0, 0, 0, 0
97,2018-08-15 03:30:55pm, STATIC, random_17, false, RIGHT, 2505, 0, 0, 0, 0
98,2018-08-15 03:30:57pm, STATIC, random_17, false, RIGHT, 2071, 1, 1, 1, 1
99,2018-08-15 03:31:00pm, STATIC, random_17, false, RIGHT, 2550, 0, 1, 1, 0
