[{"RT":5348,"time": "2018-08-15 01:44:32pm", "schedule_type": "STATIC", "schedule_name": "random_17", "is_biased_choice":true,"side_choice": "RIGHT", "trial_number":0,"observed_reward":0,"unobserved_reward":0},{"RT":4720,"time": "2018-08-15 01:44:37pm", "schedule_type": "STATIC", "schedule_name": "random_17", "is_biased_choice":false,"side_choice": "LEFT", "trial_number":1,"observed_reward":0,"unobserved_reward":0},{"RT":7231,"time": "2018-08-15 01:44:44pm", "schedule_type": "STATIC", "schedule_name": "random_17", "is_biased_choice":true,"side_choice": "RIGHT", "trial_number":2,"observed_reward":0,"unobserved_reward":0},{"RT":3984,"time": "2018-08-15 01:44:48pm", "schedule_type": "STATIC", "schedule_name": "random_17", "is_biased_choice":false,"side_choice": "LEFT", "trial_number":3,"observed_reward":0,"unobserved_reward":1},{"RT":3704,"time": "2018-08-15 01:44:52pm", "schedule_type": "STATIC", "schedule_name": "random_17", "is_biased_choice":true,"side_choice": "RIGHT", "trial_number":4,"observed_reward":0,"unobserved_reward":0},{"RT":3473,"time": "2018-08-15 01:44:55pm", "schedule_type": "STATIC", "schedule_name": "random_17", "is_biased_choice":true,"side_choice": "RIGHT", "trial_number":5,"observed_reward":0,"unobserved_reward":0},{"RT":3071,"time": "2018-08-15 01:44:58pm", "schedule_type": "STATIC", "schedule_name": "random_17", "is_biased_choice":false,"side_choice": "LEFT", "trial_number":6,"observed_reward":0,"unobserved_reward":1},{"RT":3968,"time": "2018-08-15 01:45:02pm", "schedule_type": "STATIC", "schedule_name": "random_17", "is_biased_choice":true,"side_choice": "RIGHT", "trial_number":7,"observed_reward":0,"unobserved_reward":0},{"RT":3266,"time": "2018-08-15 01:45:05pm", "schedule_type": "STATIC", "schedule_name": "random_17", "is_biased_choice":false,"side_choice": "LEFT", "trial_number":8,"observed_reward":0,"unobserved_reward":0},{"RT":3982,"time": "2018-08-15 01:45:09pm", "schedule_type": "STATIC", "schedule_name": "random_17", "is_biased_choice":true,"side_choice": "RIGHT", "trial_number":9,"observed_reward":0,"unobserved_reward":1},{"RT":3360,"time": "2018-08-15 01:45:13pm", "schedule_type": "STATIC", "schedule_name": "random_17", "is_biased_choice":false,"side_choice": "LEFT", "trial_number":10,"observed_reward":0,"unobserved_reward":1},{"RT":3624,"time": "2018-08-15 01:45:16pm", "schedule_type": "STATIC", "schedule_name": "random_17", "is_biased_choice":true,"side_choice": "RIGHT", "trial_number":11,"observed_reward":1,"unobserved_reward":1},{"RT":3561,"time": "2018-08-15 01:45:20pm", "schedule_type": "STATIC", "schedule_name": "random_17", "is_biased_choice":false,"side_choice": "LEFT", "trial_number":12,"observed_reward":0,"unobserved_reward":0},{"RT":3103,"time": "2018-08-15 01:45:24pm", "schedule_type": "STATIC", "schedule_name": "random_17", "is_biased_choice":true,"side_choice": "RIGHT", "trial_number":13,"observed_reward":1,"unobserved_reward":1},{"RT":3920,"time": "2018-08-15 01:45:27pm", "schedule_type": "STATIC", "schedule_name": "random_17", "is_biased_choice":false,"side_choice": "LEFT", "trial_number":14,"observed_reward":0,"unobserved_reward":0},{"RT":3328,"time": "2018-08-15 01:45:30pm", "schedule_type": "STATIC", "schedule_name": "random_17", "is_biased_choice":true,"side_choice": "RIGHT", "trial_number":15,"observed_reward":0,"unobserved_reward":0},{"RT":3232,"time": "2018-08-15 01:45:33pm", "schedule_type": "STATIC", "schedule_name": "random_17", "is_biased_choice":false,"side_choice": "LEFT", "trial_number":16,"observed_reward":1,"unobserved_reward":0},{"RT":3792,"time": "2018-08-15 01:45:37pm", "schedule_type": "STATIC", "schedule_name": "random_17", "is_biased_choice":true,"side_choice": "RIGHT", "trial_number":17,"observed_reward":0,"unobserved_reward":0},{"RT":3976,"time": "2018-08-15 01:45:41pm", "schedule_type": "STATIC", "schedule_name": "random_17", "is_biased_choice":false,"side_choice": "LEFT", "trial_number":18,"observed_reward":0,"unobserved_reward":0},{"RT":2440,"time": "2018-08-15 01:45:43pm", "schedule_type": "STATIC", "schedule_name": "random_17", "is_biased_choice":true,"side_choice": "RIGHT", "trial_number":19,"observed_reward":1,"unobserved_reward":0},{"RT":2960,"time": "2018-08-15 01:45:46pm", "schedule_type": "STATIC", "schedule_name": "random_17", "is_biased_choice":false,"side_choice": "LEFT", "trial_number":20,"observed_reward":1,"unobserved_reward":0},{"RT":2896,"time": "2018-08-15 01:45:50pm", "schedule_type": "STATIC", "schedule_name": "random_17", "is_biased_choice":true,"side_choice": "RIGHT", "trial_number":21,"observed_reward":1,"unobserved_reward":0},{"RT":2944,"time": "2018-08-15 01:45:52pm", "schedule_type": "STATIC", "schedule_name": "random_17", "is_biased_choice":false,"side_choice": "LEFT", "trial_number":22,"observed_reward":0,"unobserved_reward":0},{"RT":2447,"time": "2018-08-15 01:45:55pm", "schedule_type": "STATIC", "schedule_name": "random_17", "is_biased_choice":true,"side_choice": "RIGHT", "trial_number":23,"observed_reward":0,"unobserved_reward":0},{"RT":3025,"time": "2018-08-15 01:45:58pm", "schedule_type": "STATIC", "schedule_name": "random_17", "is_biased_choice":true,"side_choice": "RIGHT", "trial_number":24,"observed_reward":0,"unobserved_reward":1},{"RT":3431,"time": "2018-08-15 01:46:02pm", "schedule_type": "STATIC", "schedule_name": "random_17", "is_biased_choice":false,"side_choice": "LEFT", "trial_number":25,"observed_reward":0,"unobserved_reward":0},{"RT":3489,"time": "2018-08-15 01:46:05pm", "schedule_type": "STATIC", "schedule_name": "random_17", "is_biased_choice":true,"side_choice": "RIGHT", "trial_number":26,"observed_reward":1,"unobserved_reward":0},{"RT":3968,"time": "2018-08-15 01:46:09pm", "schedule_type": "STATIC", "schedule_name": "random_17", "is_biased_choice":false,"side_choice": "LEFT", "trial_number":27,"observed_reward":0,"unobserved_reward":0},{"RT":3168,"time": "2018-08-15 01:46:12pm", "schedule_type": "STATIC", "schedule_name": "random_17", "is_biased_choice":true,"side_choice": "RIGHT", "trial_number":28,"observed_reward":0,"unobserved_reward":0},{"RT":3432,"time": "2018-08-15 01:46:15pm", "schedule_type": "STATIC", "schedule_name": "random_17", "is_biased_choice":false,"side_choice": "LEFT", "trial_number":29,"observed_reward":0,"unobserved_reward":1},{"RT":3064,"time": "2018-08-15 01:46:19pm", "schedule_type": "STATIC", "schedule_name": "random_17", "is_biased_choice":true,"side_choice": "RIGHT", "trial_number":30,"observed_reward":0,"unobserved_reward":1},{"RT":3120,"time": "2018-08-15 01:46:21pm", "schedule_type": "STATIC", "schedule_name": "random_17", "is_biased_choice":false,"side_choice": "LEFT", "trial_number":31,"observed_reward":0,"unobserved_reward":1},{"RT":3328,"time": "2018-08-15 01:46:26pm", "schedule_type": "STATIC", "schedule_name": "random_17", "is_biased_choice":true,"side_choice": "RIGHT", "trial_number":32,"observed_reward":0,"unobserved_reward":1},{"RT":3568,"time": "2018-08-15 01:46:29pm", "schedule_type": "STATIC", "schedule_name": "random_17", "is_biased_choice":false,"side_choice": "LEFT", "trial_number":33,"observed_reward":1,"unobserved_reward":0},{"RT":3168,"time": "2018-08-15 01:46:32pm", "schedule_type": "STATIC", "schedule_name": "random_17", "is_biased_choice":true,"side_choice": "RIGHT", "trial_number":34,"observed_reward":0,"unobserved_reward":1},{"RT":2730,"time": "2018-08-15 01:46:34pm", "schedule_type": "STATIC", "schedule_name": "random_17", "is_biased_choice":false,"side_choice": "LEFT", "trial_number":35,"observed_reward":0,"unobserved_reward":0},{"RT":3613,"time": "2018-08-15 01:46:38pm", "schedule_type": "STATIC", "schedule_name": "random_17", "is_biased_choice":true,"side_choice": "RIGHT", "trial_number":36,"observed_reward":0,"unobserved_reward":0},{"RT":3056,"time": "2018-08-15 01:46:41pm", "schedule_type": "STATIC", "schedule_name": "random_17", "is_biased_choice":false,"side_choice": "LEFT", "trial_number":37,"observed_reward":1,"unobserved_reward":1},{"RT":2801,"time": "2018-08-15 01:46:44pm", "schedule_type": "STATIC", "schedule_name": "random_17", "is_biased_choice":true,"side_choice": "RIGHT", "trial_number":38,"observed_reward":0,"unobserved_reward":0},{"RT":3456,"time": "2018-08-15 01:46:47pm", "schedule_type": "STATIC", "schedule_name": "random_17", "is_biased_choice":false,"side_choice": "LEFT", "trial_number":39,"observed_reward":0,"unobserved_reward":0},{"RT":2855,"time": "2018-08-15 01:46:50pm", "schedule_type": "STATIC", "schedule_name": "random_17", "is_biased_choice":true,"side_choice": "RIGHT", "trial_number":40,"observed_reward":0,"unobserved_reward":0},{"RT":3832,"time": "2018-08-15 01:46:54pm", "schedule_type": "STATIC", "schedule_name": "random_17", "is_biased_choice":false,"side_choice": "LEFT", "trial_number":41,"observed_reward":1,"unobserved_reward":0},{"RT":2601,"time": "2018-08-15 01:46:56pm", "schedule_type": "STATIC", "schedule_name": "random_17", "is_biased_choice":true,"side_choice": "RIGHT", "trial_number":42,"observed_reward":0,"unobserved_reward":0},{"RT":5224,"time": "2018-08-15 01:47:02pm", "schedule_type": "STATIC", "schedule_name": "random_17", "is_biased_choice":false,"side_choice": "LEFT", "trial_number":43,"observed_reward":0,"unobserved_reward":1},{"RT":2728,"time": "2018-08-15 01:47:04pm", "schedule_type": "STATIC", "schedule_name": "random_17", "is_biased_choice":true,"side_choice": "RIGHT", "trial_number":44,"observed_reward":0,"unobserved_reward":0},{"RT":3032,"time": "2018-08-15 01:47:08pm", "schedule_type": "STATIC", "schedule_name": "random_17", "is_biased_choice":false,"side_choice": "LEFT", "trial_number":45,"observed_reward":0,"unobserved_reward":0},{"RT":3193,"time": "2018-08-15 01:47:11pm", "schedule_type": "STATIC", "schedule_name": "random_17", "is_biased_choice":true,"side_choice": "RIGHT", "trial_number":46,"observed_reward":0,"unobserved_reward":0},{"RT":3398,"time": "2018-08-15 01:47:14pm", "schedule_type": "STATIC", "schedule_name": "random_17", "is_biased_choice":false,"side_choice": "LEFT", "trial_number":47,"observed_reward":0,"unobserved_reward":0},{"RT":3641,"time": "2018-08-15 01:47:18pm", "schedule_type": "STATIC", "schedule_name": "random_17", "is_biased_choice":true,"side_choice": "RIGHT", "trial_number":48,"observed_reward":0,"unobserved_reward":0},{"RT":3224,"time": "2018-08-15 01:47:21pm", "schedule_type": "STATIC", "schedule_name": "random_17", "is_biased_choice":false,"side_choice": "LEFT", "trial_number":49,"observed_reward":0,"unobserved_reward":0},{"RT":3256,"time": "2018-08-15 01:47:24pm", "schedule_type": "STATIC", "schedule_name": "random_17", "is_biased_choice":true,"side_choice": "RIGHT", "trial_number":50,"observed_reward":1,"unobserved_reward":0},{"RT":3784,"time": "2018-08-15 01:47:29pm", "schedule_type": "STATIC", "schedule_name": "random_17", "is_biased_choice":false,"side_choice": "LEFT", "trial_number":51,"observed_reward":1,"unobserved_reward":0},{"RT":3559,"time": "2018-08-15 01:47:32pm", "schedule_type": "STATIC", "schedule_name": "random_17", "is_biased_choice":true,"side_choice": "RIGHT", "trial_number":52,"observed_reward":0,"unobserved_reward":0},{"RT":3608,"time": "2018-08-15 01:47:35pm", "schedule_type": "STATIC", "schedule_name": "random_17", "is_biased_choice":false,"side_choice": "LEFT", "trial_number":53,"observed_reward":0,"unobserved_reward":1},{"RT":2584,"time": "2018-08-15 01:47:38pm", "schedule_type": "STATIC", "schedule_name": "random_17", "is_biased_choice":true,"side_choice": "RIGHT", "trial_number":54,"observed_reward":0,"unobserved_reward":0},{"RT":2705,"time": "2018-08-15 01:47:41pm", "schedule_type": "STATIC", "schedule_name": "random_17", "is_biased_choice":false,"side_choice": "LEFT", "trial_number":55,"observed_reward":1,"unobserved_reward":1},{"RT":2896,"time": "2018-08-15 01:47:43pm", "schedule_type": "STATIC", "schedule_name": "random_17", "is_biased_choice":true,"side_choice": "RIGHT", "trial_number":56,"observed_reward":0,"unobserved_reward":1},{"RT":2952,"time": "2018-08-15 01:47:46pm", "schedule_type": "STATIC", "schedule_name": "random_17", "is_biased_choice":false,"side_choice": "LEFT", "trial_number":57,"observed_reward":0,"unobserved_reward":0},{"RT":2960,"time": "2018-08-15 01:47:49pm", "schedule_type": "STATIC", "schedule_name": "random_17", "is_biased_choice":true,"side_choice": "RIGHT", "trial_number":58,"observed_reward":0,"unobserved_reward":1},{"RT":2895,"time": "2018-08-15 01:47:52pm", "schedule_type": "STATIC", "schedule_name": "random_17", "is_biased_choice":false,"side_choice": "LEFT", "trial_number":59,"observed_reward":1,"unobserved_reward":0},{"RT":2840,"time": "2018-08-15 01:47:55pm", "schedule_type": "STATIC", "schedule_name": "random_17", "is_biased_choice":true,"side_choice": "RIGHT", "trial_number":60,"observed_reward":0,"unobserved_reward":1},{"RT":2561,"time": "2018-08-15 01:47:57pm", "schedule_type": "STATIC", "schedule_name": "random_17", "is_biased_choice":false,"side_choice": "LEFT", "trial_number":61,"observed_reward":0,"unobserved_reward":0},{"RT":3183,"time": "2018-08-15 01:48:01pm", "schedule_type": "STATIC", "schedule_name": "random_17", "is_biased_choice":true,"side_choice": "RIGHT", "trial_number":62,"observed_reward":1,"unobserved_reward":0},{"RT":3392,"time": "2018-08-15 01:48:04pm", "schedule_type": "STATIC", "schedule_name": "random_17", "is_biased_choice":false,"side_choice": "LEFT", "trial_number":63,"observed_reward":1,"unobserved_reward":0},{"RT":2880,"time": "2018-08-15 01:48:07pm", "schedule_type": "STATIC", "schedule_name": "random_17", "is_biased_choice":true,"side_choice": "RIGHT", "trial_number":64,"observed_reward":0,"unobserved_reward":0},{"RT":2560,"time": "2018-08-15 01:48:10pm", "schedule_type": "STATIC", "schedule_name": "random_17", "is_biased_choice":false,"side_choice": "LEFT", "trial_number":65,"observed_reward":0,"unobserved_reward":0},{"RT":2576,"time": "2018-08-15 01:48:12pm", "schedule_type": "STATIC", "schedule_name": "random_17", "is_biased_choice":true,"side_choice": "RIGHT", "trial_number":66,"observed_reward":0,"unobserved_reward":1},{"RT":2688,"time": "2018-08-15 01:48:15pm", "schedule_type": "STATIC", "schedule_name": "random_17", "is_biased_choice":false,"side_choice": "LEFT", "trial_number":67,"observed_reward":0,"unobserved_reward":0},{"RT":2569,"time": "2018-08-15 01:48:17pm", "schedule_type": "STATIC", "schedule_name": "random_17", "is_biased_choice":true,"side_choice": "RIGHT", "trial_number":68,"observed_reward":0,"unobserved_reward":1},{"RT":3023,"time": "2018-08-15 01:48:21pm", "schedule_type": "STATIC", "schedule_name": "random_17", "is_biased_choice":false,"side_choice": "LEFT", "trial_number":69,"observed_reward":1,"unobserved_reward":0},{"RT":3041,"time": "2018-08-15 01:48:23pm", "schedule_type": "STATIC", "schedule_name": "random_17", "is_biased_choice":true,"side_choice": "RIGHT", "trial_number":70,"observed_reward":0,"unobserved_reward":0},{"RT":2495,"time": "2018-08-15 01:48:26pm", "schedule_type": "STATIC", "schedule_name": "random_17", "is_biased_choice":false,"side_choice": "LEFT", "trial_number":71,"observed_reward":0,"unobserved_reward":0},{"RT":2679,"time": "2018-08-15 01:48:29pm", "schedule_type": "STATIC", "schedule_name": "random_17", "is_biased_choice":true,"side_choice": "RIGHT", "trial_number":72,"observed_reward":0,"unobserved_reward":1},{"RT":3009,"time": "2018-08-15 01:48:32pm", "schedule_type": "STATIC", "schedule_name": "random_17", "is_biased_choice":false,"side_choice": "LEFT", "trial_number":73,"observed_reward":0,"unobserved_reward":1},{"RT":2791,"time": "2018-08-15 01:48:34pm", "schedule_type": "STATIC", "schedule_name": "random_17", "is_biased_choice":true,"side_choice": "RIGHT", "trial_number":74,"observed_reward":1,"unobserved_reward":0},{"RT":2497,"time": "2018-08-15 01:48:37pm", "schedule_type": "STATIC", "schedule_name": "random_17", "is_biased_choice":false,"side_choice": "LEFT", "trial_number":75,"observed_reward":0,"unobserved_reward":0},{"RT":2568,"time": "2018-08-15 01:48:40pm", "schedule_type": "STATIC", "schedule_name": "random_17", "is_biased_choice":true,"side_choice": "RIGHT", "trial_number":76,"observed_reward":0,"unobserved_reward":1},{"RT":2680,"time": "2018-08-15 01:48:42pm", "schedule_type": "STATIC", "schedule_name": "random_17", "is_biased_choice":false,"side_choice": "LEFT", "trial_number":77,"observed_reward":0,"unobserved_reward":1},{"RT":2960,"time": "2018-08-15 01:48:45pm", "schedule_type": "STATIC", "schedule_name": "random_17", "is_biased_choice":true,"side_choice": "RIGHT", "trial_number":78,"observed_reward":0,"unobserved_reward":0},{"RT":2871,"time": "2018-08-15 01:48:48pm", "schedule_type": "STATIC", "schedule_name": "random_17", "is_biased_choice":false,"side_choice": "LEFT", "trial_number":79,"observed_reward":0,"unobserved_reward":0},{"RT":2833,"time": "2018-08-15 01:48:51pm", "schedule_type": "STATIC", "schedule_name": "random_17", "is_biased_choice":true,"side_choice": "RIGHT", "trial_number":80,"observed_reward":1,"unobserved_reward":0},{"RT":2608,"time": "2018-08-15 01:48:53pm", "schedule_type": "STATIC", "schedule_name": "random_17", "is_biased_choice":false,"side_choice": "LEFT", "trial_number":81,"observed_reward":0,"unobserved_reward":1},{"RT":2480,"time": "2018-08-15 01:48:56pm", "schedule_type": "STATIC", "schedule_name": "random_17", "is_biased_choice":true,"side_choice": "RIGHT", "trial_number":82,"observed_reward":1,"unobserved_reward":0},{"RT":2584,"time": "2018-08-15 01:48:58pm", "schedule_type": "STATIC", "schedule_name": "random_17", "is_biased_choice":false,"side_choice": "LEFT", "trial_number":83,"observed_reward":0,"unobserved_reward":0},{"RT":2912,"time": "2018-08-15 01:49:02pm", "schedule_type": "STATIC", "schedule_name": "random_17", "is_biased_choice":true,"side_choice": "RIGHT", "trial_number":84,"observed_reward":0,"unobserved_reward":0},{"RT":2592,"time": "2018-08-15 01:49:04pm", "schedule_type": "STATIC", "schedule_name": "random_17", "is_biased_choice":false,"side_choice": "LEFT", "trial_number":85,"observed_reward":0,"unobserved_reward":0},{"RT":2983,"time": "2018-08-15 01:49:07pm", "schedule_type": "STATIC", "schedule_name": "random_17", "is_biased_choice":true,"side_choice": "RIGHT", "trial_number":86,"observed_reward":0,"unobserved_reward":0},{"RT":2600,"time": "2018-08-15 01:49:10pm", "schedule_type": "STATIC", "schedule_name": "random_17", "is_biased_choice":false,"side_choice": "LEFT", "trial_number":87,"observed_reward":0,"unobserved_reward":0},{"RT":2873,"time": "2018-08-15 01:49:12pm", "schedule_type": "STATIC", "schedule_name": "random_17", "is_biased_choice":true,"side_choice": "RIGHT", "trial_number":88,"observed_reward":0,"unobserved_reward":0},{"RT":2712,"time": "2018-08-15 01:49:15pm", "schedule_type": "STATIC", "schedule_name": "random_17", "is_biased_choice":false,"side_choice": "LEFT", "trial_number":89,"observed_reward":0,"unobserved_reward":0},{"RT":2543,"time": "2018-08-15 01:49:18pm", "schedule_type": "STATIC", "schedule_name": "random_17", "is_biased_choice":true,"side_choice": "RIGHT", "trial_number":90,"observed_reward":0,"unobserved_reward":0},{"RT":2632,"time": "2018-08-15 01:49:21pm", "schedule_type": "STATIC", "schedule_name": "random_17", "is_biased_choice":false,"side_choice": "LEFT", "trial_number":91,"observed_reward":0,"unobserved_reward":0},{"RT":3049,"time": "2018-08-15 01:49:23pm", "schedule_type": "STATIC", "schedule_name": "random_17", "is_biased_choice":true,"side_choice": "RIGHT", "trial_number":92,"observed_reward":0,"unobserved_reward":0},{"RT":2719,"time": "2018-08-15 01:49:26pm", "schedule_type": "STATIC", "schedule_name": "random_17", "is_biased_choice":false,"side_choice": "LEFT", "trial_number":93,"observed_reward":0,"unobserved_reward":1},{"RT":2832,"time": "2018-08-15 01:49:29pm", "schedule_type": "STATIC", "schedule_name": "random_17", "is_biased_choice":true,"side_choice": "RIGHT", "trial_number":94,"observed_reward":0,"unobserved_reward":0},{"RT":2672,"time": "2018-08-15 01:49:32pm", "schedule_type": "STATIC", "schedule_name": "random_17", "is_biased_choice":false,"side_choice": "LEFT", "trial_number":95,"observed_reward":0,"unobserved_reward":0},{"RT":2736,"time": "2018-08-15 01:49:34pm", "schedule_type": "STATIC", "schedule_name": "random_17", "is_biased_choice":true,"side_choice": "RIGHT", "trial_number":96,"observed_reward":0,"unobserved_reward":0},{"RT":2624,"time": "2018-08-15 01:49:37pm", "schedule_type": "STATIC", "schedule_name": "random_17", "is_biased_choice":false,"side_choice": "LEFT", "trial_number":97,"observed_reward":0,"unobserved_reward":0},{"RT":3144,"time": "2018-08-15 01:49:40pm", "schedule_type": "STATIC", "schedule_name": "random_17", "is_biased_choice":true,"side_choice": "RIGHT", "trial_number":98,"observed_reward":1,"unobserved_reward":1},{"RT":2848,"time": "2018-08-15 01:49:43pm", "schedule_type": "STATIC", "schedule_name": "random_17", "is_biased_choice":false,"side_choice": "LEFT", "trial_number":99,"observed_reward":0,"unobserved_reward":1},