[{"RT":1086,"time": "2018-08-15 01:52:03pm", "schedule_type": "STATIC", "schedule_name": "random_17", "is_biased_choice":true,"side_choice": "LEFT", "trial_number":0,"observed_reward":0,"unobserved_reward":0},{"RT":5626,"time": "2018-08-15 01:52:08pm", "schedule_type": "STATIC", "schedule_name": "random_17", "is_biased_choice":true,"side_choice": "LEFT", "trial_number":1,"observed_reward":0,"unobserved_reward":0},{"RT":2848,"time": "2018-08-15 01:52:11pm", "schedule_type": "STATIC", "schedule_name": "random_17", "is_biased_choice":true,"side_choice": "LEFT", "trial_number":2,"observed_reward":0,"unobserved_reward":0},{"RT":2952,"time": "2018-08-15 01:52:14pm", "schedule_type": "STATIC", "schedule_name": "random_17", "is_biased_choice":true,"side_choice": "LEFT", "trial_number":3,"observed_reward":1,"unobserved_reward":0},{"RT":2716,"time": "2018-08-15 01:52:17pm", "schedule_type": "STATIC", "schedule_name": "random_17", "is_biased_choice":true,"side_choice": "LEFT", "trial_number":4,"observed_reward":0,"unobserved_reward":0},{"RT":2367,"time": "2018-08-15 01:52:19pm", "schedule_type": "STATIC", "schedule_name": "random_17", "is_biased_choice":true,"side_choice": "LEFT", "trial_number":5,"observed_reward":0,"unobserved_reward":0},{"RT":2698,"time": "2018-08-15 01:52:22pm", "schedule_type": "STATIC", "schedule_name": "random_17", "is_biased_choice":false,"side_choice": "RIGHT", "trial_number":6,"observed_reward":0,"unobserved_reward":1},{"RT":2785,"time": "2018-08-15 01:52:25pm", "schedule_type": "STATIC", "schedule_name": "random_17", "is_biased_choice":true,"side_choice": "LEFT", "trial_number":7,"observed_reward":0,"unobserved_reward":0},{"RT":2483,"time": "2018-08-15 01:52:27pm", "schedule_type": "STATIC", "schedule_name": "random_17", "is_biased_choice":false,"side_choice": "RIGHT", "trial_number":8,"observed_reward":0,"unobserved_reward":0},{"RT":2380,"time": "2018-08-15 01:52:29pm", "schedule_type": "STATIC", "schedule_name": "random_17", "is_biased_choice":true,"side_choice": "LEFT", "trial_number":9,"observed_reward":0,"unobserved_reward":1},{"RT":4085,"time": "2018-08-15 01:52:34pm", "schedule_type": "STATIC", "schedule_name": "random_17", "is_biased_choice":true,"side_choice": "LEFT", "trial_number":10,"observed_reward":1,"unobserved_reward":0},{"RT":2519,"time": "2018-08-15 01:52:36pm", "schedule_type": "STATIC", "schedule_name": "random_17", "is_biased_choice":true,"side_choice": "LEFT", "trial_number":11,"observed_reward":1,"unobserved_reward":1},{"RT":2314,"time": "2018-08-15 01:52:38pm", "schedule_type": "STATIC", "schedule_name": "random_17", "is_biased_choice":true,"side_choice": "LEFT", "trial_number":12,"observed_reward":0,"unobserved_reward":0},{"RT":2284,"time": "2018-08-15 01:52:41pm", "schedule_type": "STATIC", "schedule_name": "random_17", "is_biased_choice":true,"side_choice": "LEFT", "trial_number":13,"observed_reward":1,"unobserved_reward":1},{"RT":2999,"time": "2018-08-15 01:52:44pm", "schedule_type": "STATIC", "schedule_name": "random_17", "is_biased_choice":false,"side_choice": "RIGHT", "trial_number":14,"observed_reward":0,"unobserved_reward":0},{"RT":2468,"time": "2018-08-15 01:52:46pm", "schedule_type": "STATIC", "schedule_name": "random_17", "is_biased_choice":false,"side_choice": "RIGHT", "trial_number":15,"observed_reward":0,"unobserved_reward":0},{"RT":2363,"time": "2018-08-15 01:52:48pm", "schedule_type": "STATIC", "schedule_name": "random_17", "is_biased_choice":true,"side_choice": "LEFT", "trial_number":16,"observed_reward":0,"unobserved_reward":1},{"RT":2432,"time": "2018-08-15 01:52:51pm", "schedule_type": "STATIC", "schedule_name": "random_17", "is_biased_choice":true,"side_choice": "LEFT", "trial_number":17,"observed_reward":0,"unobserved_reward":0},{"RT":2383,"time": "2018-08-15 01:52:53pm", "schedule_type": "STATIC", "schedule_name": "random_17", "is_biased_choice":false,"side_choice": "RIGHT", "trial_number":18,"observed_reward":0,"unobserved_reward":0},{"RT":2821,"time": "2018-08-15 01:52:56pm", "schedule_type": "STATIC", "schedule_name": "random_17", "is_biased_choice":true,"side_choice": "LEFT", "trial_number":19,"observed_reward":1,"unobserved_reward":0},{"RT":2427,"time": "2018-08-15 01:52:59pm", "schedule_type": "STATIC", "schedule_name": "random_17", "is_biased_choice":false,"side_choice": "RIGHT", "trial_number":20,"observed_reward":1,"unobserved_reward":0},{"RT":2337,"time": "2018-08-15 01:53:01pm", "schedule_type": "STATIC", "schedule_name": "random_17", "is_biased_choice":false,"side_choice": "RIGHT", "trial_number":21,"observed_reward":0,"unobserved_reward":1},{"RT":2787,"time": "2018-08-15 01:53:04pm", "schedule_type": "STATIC", "schedule_name": "random_17", "is_biased_choice":true,"side_choice": "LEFT", "trial_number":22,"observed_reward":0,"unobserved_reward":0},{"RT":2396,"time": "2018-08-15 01:53:06pm", "schedule_type": "STATIC", "schedule_name": "random_17", "is_biased_choice":false,"side_choice": "RIGHT", "trial_number":23,"observed_reward":0,"unobserved_reward":0},{"RT":2470,"time": "2018-08-15 01:53:08pm", "schedule_type": "STATIC", "schedule_name": "random_17", "is_biased_choice":true,"side_choice": "LEFT", "trial_number":24,"observed_reward":0,"unobserved_reward":1},{"RT":2417,"time": "2018-08-15 01:53:11pm", "schedule_type": "STATIC", "schedule_name": "random_17", "is_biased_choice":true,"side_choice": "LEFT", "trial_number":25,"observed_reward":0,"unobserved_reward":0},{"RT":2650,"time": "2018-08-15 01:53:14pm", "schedule_type": "STATIC", "schedule_name": "random_17", "is_biased_choice":true,"side_choice": "LEFT", "trial_number":26,"observed_reward":1,"unobserved_reward":0},{"RT":2831,"time": "2018-08-15 01:53:16pm", "schedule_type": "STATIC", "schedule_name": "random_17", "is_biased_choice":true,"side_choice": "LEFT", "trial_number":27,"observed_reward":0,"unobserved_reward":0},{"RT":2599,"time": "2018-08-15 01:53:19pm", "schedule_type": "STATIC", "schedule_name": "random_17", "is_biased_choice":false,"side_choice": "RIGHT", "trial_number":28,"observed_reward":0,"unobserved_reward":0},{"RT":2546,"time": "2018-08-15 01:53:22pm", "schedule_type": "STATIC", "schedule_name": "random_17", "is_biased_choice":true,"side_choice": "LEFT", "trial_number":29,"observed_reward":1,"unobserved_reward":0},{"RT":2474,"time": "2018-08-15 01:53:24pm", "schedule_type": "STATIC", "schedule_name": "random_17", "is_biased_choice":true,"side_choice": "LEFT", "trial_number":30,"observed_reward":0,"unobserved_reward":1},{"RT":2448,"time": "2018-08-15 01:53:26pm", "schedule_type": "STATIC", "schedule_name": "random_17", "is_biased_choice":true,"side_choice": "LEFT", "trial_number":31,"observed_reward":1,"unobserved_reward":0},{"RT":2325,"time": "2018-08-15 01:53:29pm", "schedule_type": "STATIC", "schedule_name": "random_17", "is_biased_choice":true,"side_choice": "LEFT", "trial_number":32,"observed_reward":0,"unobserved_reward":1},{"RT":2409,"time": "2018-08-15 01:53:31pm", "schedule_type": "STATIC", "schedule_name": "random_17", "is_biased_choice":true,"side_choice": "LEFT", "trial_number":33,"observed_reward":0,"unobserved_reward":1},{"RT":3011,"time": "2018-08-15 01:53:34pm", "schedule_type": "STATIC", "schedule_name": "random_17", "is_biased_choice":false,"side_choice": "RIGHT", "trial_number":34,"observed_reward":1,"unobserved_reward":0},{"RT":2340,"time": "2018-08-15 01:53:37pm", "schedule_type": "STATIC", "schedule_name": "random_17", "is_biased_choice":true,"side_choice": "LEFT", "trial_number":35,"observed_reward":0,"unobserved_reward":0},{"RT":2441,"time": "2018-08-15 01:53:39pm", "schedule_type": "STATIC", "schedule_name": "random_17", "is_biased_choice":true,"side_choice": "LEFT", "trial_number":36,"observed_reward":0,"unobserved_reward":0},{"RT":2984,"time": "2018-08-15 01:53:42pm", "schedule_type": "STATIC", "schedule_name": "random_17", "is_biased_choice":true,"side_choice": "LEFT", "trial_number":37,"observed_reward":1,"unobserved_reward":1},{"RT":2539,"time": "2018-08-15 01:53:45pm", "schedule_type": "STATIC", "schedule_name": "random_17", "is_biased_choice":false,"side_choice": "RIGHT", "trial_number":38,"observed_reward":0,"unobserved_reward":0},{"RT":3050,"time": "2018-08-15 01:53:48pm", "schedule_type": "STATIC", "schedule_name": "random_17", "is_biased_choice":false,"side_choice": "RIGHT", "trial_number":39,"observed_reward":0,"unobserved_reward":0},{"RT":2315,"time": "2018-08-15 01:53:50pm", "schedule_type": "STATIC", "schedule_name": "random_17", "is_biased_choice":true,"side_choice": "LEFT", "trial_number":40,"observed_reward":0,"unobserved_reward":0},{"RT":2336,"time": "2018-08-15 01:53:52pm", "schedule_type": "STATIC", "schedule_name": "random_17", "is_biased_choice":false,"side_choice": "RIGHT", "trial_number":41,"observed_reward":1,"unobserved_reward":0},{"RT":2383,"time": "2018-08-15 01:53:55pm", "schedule_type": "STATIC", "schedule_name": "random_17", "is_biased_choice":true,"side_choice": "LEFT", "trial_number":42,"observed_reward":0,"unobserved_reward":0},{"RT":2624,"time": "2018-08-15 01:53:57pm", "schedule_type": "STATIC", "schedule_name": "random_17", "is_biased_choice":false,"side_choice": "RIGHT", "trial_number":43,"observed_reward":0,"unobserved_reward":1},{"RT":2293,"time": "2018-08-15 01:54:00pm", "schedule_type": "STATIC", "schedule_name": "random_17", "is_biased_choice":true,"side_choice": "LEFT", "trial_number":44,"observed_reward":0,"unobserved_reward":0},{"RT":2368,"time": "2018-08-15 01:54:02pm", "schedule_type": "STATIC", "schedule_name": "random_17", "is_biased_choice":false,"side_choice": "RIGHT", "trial_number":45,"observed_reward":0,"unobserved_reward":0},{"RT":2681,"time": "2018-08-15 01:54:05pm", "schedule_type": "STATIC", "schedule_name": "random_17", "is_biased_choice":true,"side_choice": "LEFT", "trial_number":46,"observed_reward":0,"unobserved_reward":0},{"RT":2783,"time": "2018-08-15 01:54:07pm", "schedule_type": "STATIC", "schedule_name": "random_17", "is_biased_choice":true,"side_choice": "LEFT", "trial_number":47,"observed_reward":0,"unobserved_reward":0},{"RT":3132,"time": "2018-08-15 01:54:11pm", "schedule_type": "STATIC", "schedule_name": "random_17", "is_biased_choice":false,"side_choice": "RIGHT", "trial_number":48,"observed_reward":0,"unobserved_reward":0},{"RT":2401,"time": "2018-08-15 01:54:13pm", "schedule_type": "STATIC", "schedule_name": "random_17", "is_biased_choice":true,"side_choice": "LEFT", "trial_number":49,"observed_reward":0,"unobserved_reward":0},{"RT":2863,"time": "2018-08-15 01:54:16pm", "schedule_type": "STATIC", "schedule_name": "random_17", "is_biased_choice":true,"side_choice": "LEFT", "trial_number":50,"observed_reward":1,"unobserved_reward":0},{"RT":2421,"time": "2018-08-15 01:54:18pm", "schedule_type": "STATIC", "schedule_name": "random_17", "is_biased_choice":true,"side_choice": "LEFT", "trial_number":51,"observed_reward":0,"unobserved_reward":1},{"RT":2401,"time": "2018-08-15 01:54:21pm", "schedule_type": "STATIC", "schedule_name": "random_17", "is_biased_choice":true,"side_choice": "LEFT", "trial_number":52,"observed_reward":0,"unobserved_reward":0},{"RT":2349,"time": "2018-08-15 01:54:23pm", "schedule_type": "STATIC", "schedule_name": "random_17", "is_biased_choice":false,"side_choice": "RIGHT", "trial_number":53,"observed_reward":0,"unobserved_reward":1},{"RT":2301,"time": "2018-08-15 01:54:25pm", "schedule_type": "STATIC", "schedule_name": "random_17", "is_biased_choice":true,"side_choice": "LEFT", "trial_number":54,"observed_reward":0,"unobserved_reward":0},{"RT":2280,"time": "2018-08-15 01:54:27pm", "schedule_type": "STATIC", "schedule_name": "random_17", "is_biased_choice":true,"side_choice": "LEFT", "trial_number":55,"observed_reward":1,"unobserved_reward":1},{"RT":2352,"time": "2018-08-15 01:54:30pm", "schedule_type": "STATIC", "schedule_name": "random_17", "is_biased_choice":true,"side_choice": "LEFT", "trial_number":56,"observed_reward":0,"unobserved_reward":1},{"RT":2718,"time": "2018-08-15 01:54:33pm", "schedule_type": "STATIC", "schedule_name": "random_17", "is_biased_choice":true,"side_choice": "LEFT", "trial_number":57,"observed_reward":0,"unobserved_reward":0},{"RT":2250,"time": "2018-08-15 01:54:35pm", "schedule_type": "STATIC", "schedule_name": "random_17", "is_biased_choice":true,"side_choice": "LEFT", "trial_number":58,"observed_reward":0,"unobserved_reward":1},{"RT":2832,"time": "2018-08-15 01:54:38pm", "schedule_type": "STATIC", "schedule_name": "random_17", "is_biased_choice":false,"side_choice": "RIGHT", "trial_number":59,"observed_reward":1,"unobserved_reward":0},{"RT":2561,"time": "2018-08-15 01:54:40pm", "schedule_type": "STATIC", "schedule_name": "random_17", "is_biased_choice":false,"side_choice": "RIGHT", "trial_number":60,"observed_reward":1,"unobserved_reward":0},{"RT":6139,"time": "2018-08-15 01:54:47pm", "schedule_type": "STATIC", "schedule_name": "random_17", "is_biased_choice":true,"side_choice": "LEFT", "trial_number":61,"observed_reward":0,"unobserved_reward":0},{"RT":2516,"time": "2018-08-15 01:54:49pm", "schedule_type": "STATIC", "schedule_name": "random_17", "is_biased_choice":false,"side_choice": "RIGHT", "trial_number":62,"observed_reward":0,"unobserved_reward":1},{"RT":5233,"time": "2018-08-15 01:54:54pm", "schedule_type": "STATIC", "schedule_name": "random_17", "is_biased_choice":true,"side_choice": "LEFT", "trial_number":63,"observed_reward":0,"unobserved_reward":1},{"RT":2500,"time": "2018-08-15 01:54:57pm", "schedule_type": "STATIC", "schedule_name": "random_17", "is_biased_choice":false,"side_choice": "RIGHT", "trial_number":64,"observed_reward":0,"unobserved_reward":0},{"RT":2416,"time": "2018-08-15 01:54:59pm", "schedule_type": "STATIC", "schedule_name": "random_17", "is_biased_choice":true,"side_choice": "LEFT", "trial_number":65,"observed_reward":0,"unobserved_reward":0},{"RT":3252,"time": "2018-08-15 01:55:03pm", "schedule_type": "STATIC", "schedule_name": "random_17", "is_biased_choice":true,"side_choice": "LEFT", "trial_number":66,"observed_reward":0,"unobserved_reward":1},{"RT":2416,"time": "2018-08-15 01:55:05pm", "schedule_type": "STATIC", "schedule_name": "random_17", "is_biased_choice":false,"side_choice": "RIGHT", "trial_number":67,"observed_reward":0,"unobserved_reward":0},{"RT":2880,"time": "2018-08-15 01:55:08pm", "schedule_type": "STATIC", "schedule_name": "random_17", "is_biased_choice":true,"side_choice": "LEFT", "trial_number":68,"observed_reward":0,"unobserved_reward":1},{"RT":2619,"time": "2018-08-15 01:55:10pm", "schedule_type": "STATIC", "schedule_name": "random_17", "is_biased_choice":true,"side_choice": "LEFT", "trial_number":69,"observed_reward":0,"unobserved_reward":1},{"RT":2399,"time": "2018-08-15 01:55:13pm", "schedule_type": "STATIC", "schedule_name": "random_17", "is_biased_choice":false,"side_choice": "RIGHT", "trial_number":70,"observed_reward":0,"unobserved_reward":0},{"RT":2317,"time": "2018-08-15 01:55:15pm", "schedule_type": "STATIC", "schedule_name": "random_17", "is_biased_choice":true,"side_choice": "LEFT", "trial_number":71,"observed_reward":0,"unobserved_reward":0},{"RT":2504,"time": "2018-08-15 01:55:17pm", "schedule_type": "STATIC", "schedule_name": "random_17", "is_biased_choice":true,"side_choice": "LEFT", "trial_number":72,"observed_reward":0,"unobserved_reward":1},{"RT":2462,"time": "2018-08-15 01:55:20pm", "schedule_type": "STATIC", "schedule_name": "random_17", "is_biased_choice":false,"side_choice": "RIGHT", "trial_number":73,"observed_reward":0,"unobserved_reward":1},{"RT":2417,"time": "2018-08-15 01:55:22pm", "schedule_type": "STATIC", "schedule_name": "random_17", "is_biased_choice":true,"side_choice": "LEFT", "trial_number":74,"observed_reward":1,"unobserved_reward":0},{"RT":3301,"time": "2018-08-15 01:55:26pm", "schedule_type": "STATIC", "schedule_name": "random_17", "is_biased_choice":false,"side_choice": "RIGHT", "trial_number":75,"observed_reward":0,"unobserved_reward":0},{"RT":2233,"time": "2018-08-15 01:55:28pm", "schedule_type": "STATIC", "schedule_name": "random_17", "is_biased_choice":true,"side_choice": "LEFT", "trial_number":76,"observed_reward":0,"unobserved_reward":1},{"RT":2415,"time": "2018-08-15 01:55:30pm", "schedule_type": "STATIC", "schedule_name": "random_17", "is_biased_choice":true,"side_choice": "LEFT", "trial_number":77,"observed_reward":1,"unobserved_reward":0},{"RT":2933,"time": "2018-08-15 01:55:33pm", "schedule_type": "STATIC", "schedule_name": "random_17", "is_biased_choice":false,"side_choice": "RIGHT", "trial_number":78,"observed_reward":0,"unobserved_reward":0},{"RT":2759,"time": "2018-08-15 01:55:36pm", "schedule_type": "STATIC", "schedule_name": "random_17", "is_biased_choice":true,"side_choice": "LEFT", "trial_number":79,"observed_reward":0,"unobserved_reward":0},{"RT":2642,"time": "2018-08-15 01:55:39pm", "schedule_type": "STATIC", "schedule_name": "random_17", "is_biased_choice":false,"side_choice": "RIGHT", "trial_number":80,"observed_reward":0,"unobserved_reward":1},{"RT":2615,"time": "2018-08-15 01:55:41pm", "schedule_type": "STATIC", "schedule_name": "random_17", "is_biased_choice":true,"side_choice": "LEFT", "trial_number":81,"observed_reward":1,"unobserved_reward":0},{"RT":2467,"time": "2018-08-15 01:55:44pm", "schedule_type": "STATIC", "schedule_name": "random_17", "is_biased_choice":true,"side_choice": "LEFT", "trial_number":82,"observed_reward":1,"unobserved_reward":0},{"RT":2400,"time": "2018-08-15 01:55:46pm", "schedule_type": "STATIC", "schedule_name": "random_17", "is_biased_choice":true,"side_choice": "LEFT", "trial_number":83,"observed_reward":0,"unobserved_reward":0},{"RT":2334,"time": "2018-08-15 01:55:48pm", "schedule_type": "STATIC", "schedule_name": "random_17", "is_biased_choice":false,"side_choice": "RIGHT", "trial_number":84,"observed_reward":0,"unobserved_reward":0},{"RT":2983,"time": "2018-08-15 01:55:51pm", "schedule_type": "STATIC", "schedule_name": "random_17", "is_biased_choice":true,"side_choice": "LEFT", "trial_number":85,"observed_reward":0,"unobserved_reward":0},{"RT":2580,"time": "2018-08-15 01:55:54pm", "schedule_type": "STATIC", "schedule_name": "random_17", "is_biased_choice":false,"side_choice": "RIGHT", "trial_number":86,"observed_reward":0,"unobserved_reward":0},{"RT":2635,"time": "2018-08-15 01:55:57pm", "schedule_type": "STATIC", "schedule_name": "random_17", "is_biased_choice":true,"side_choice": "LEFT", "trial_number":87,"observed_reward":0,"unobserved_reward":0},{"RT":3219,"time": "2018-08-15 01:56:00pm", "schedule_type": "STATIC", "schedule_name": "random_17", "is_biased_choice":false,"side_choice": "RIGHT", "trial_number":88,"observed_reward":0,"unobserved_reward":0},{"RT":2817,"time": "2018-08-15 01:56:03pm", "schedule_type": "STATIC", "schedule_name": "random_17", "is_biased_choice":true,"side_choice": "LEFT", "trial_number":89,"observed_reward":0,"unobserved_reward":0},{"RT":3027,"time": "2018-08-15 01:56:06pm", "schedule_type": "STATIC", "schedule_name": "random_17", "is_biased_choice":true,"side_choice": "LEFT", "trial_number":90,"observed_reward":0,"unobserved_reward":0},{"RT":2521,"time": "2018-08-15 01:56:08pm", "schedule_type": "STATIC", "schedule_name": "random_17", "is_biased_choice":true,"side_choice": "LEFT", "trial_number":91,"observed_reward":0,"unobserved_reward":0},{"RT":2533,"time": "2018-08-15 01:56:11pm", "schedule_type": "STATIC", "schedule_name": "random_17", "is_biased_choice":false,"side_choice": "RIGHT", "trial_number":92,"observed_reward":0,"unobserved_reward":0},{"RT":2315,"time": "2018-08-15 01:56:13pm", "schedule_type": "STATIC", "schedule_name": "random_17", "is_biased_choice":true,"side_choice": "LEFT", "trial_number":93,"observed_reward":1,"unobserved_reward":0},{"RT":2684,"time": "2018-08-15 01:56:16pm", "schedule_type": "STATIC", "schedule_name": "random_17", "is_biased_choice":true,"side_choice": "LEFT", "trial_number":94,"observed_reward":0,"unobserved_reward":0},{"RT":2136,"time": "2018-08-15 01:56:18pm", "schedule_type": "STATIC", "schedule_name": "random_17", "is_biased_choice":false,"side_choice": "RIGHT", "trial_number":95,"observed_reward":0,"unobserved_reward":0},{"RT":2565,"time": "2018-08-15 01:56:20pm", "schedule_type": "STATIC", "schedule_name": "random_17", "is_biased_choice":true,"side_choice": "LEFT", "trial_number":96,"observed_reward":0,"unobserved_reward":0},{"RT":2668,"time": "2018-08-15 01:56:23pm", "schedule_type": "STATIC", "schedule_name": "random_17", "is_biased_choice":false,"side_choice": "RIGHT", "trial_number":97,"observed_reward":0,"unobserved_reward":0},{"RT":2913,"time": "2018-08-15 01:56:26pm", "schedule_type": "STATIC", "schedule_name": "random_17", "is_biased_choice":true,"side_choice": "LEFT", "trial_number":98,"observed_reward":1,"unobserved_reward":1},{"RT":2302,"time": "2018-08-15 01:56:28pm", "schedule_type": "STATIC", "schedule_name": "random_17", "is_biased_choice":false,"side_choice": "RIGHT", "trial_number":99,"observed_reward":0,"unobserved_reward":1},