[{"RT":2746,"time": "2018-08-15 03:26:56pm", "schedule_type": "STATIC", "schedule_name": "random_17", "is_biased_choice":true,"side_choice": "LEFT", "trial_number":0,"observed_reward":0,"unobserved_reward":0},{"RT":2697,"time": "2018-08-15 03:26:59pm", "schedule_type": "STATIC", "schedule_name": "random_17", "is_biased_choice":true,"side_choice": "LEFT", "trial_number":1,"observed_reward":0,"unobserved_reward":0},{"RT":2508,"time": "2018-08-15 03:27:01pm", "schedule_type": "STATIC", "schedule_name": "random_17", "is_biased_choice":true,"side_choice": "LEFT", "trial_number":2,"observed_reward":0,"unobserved_reward":0},{"RT":2165,"time": "2018-08-15 03:27:04pm", "schedule_type": "STATIC", "schedule_name": "random_17", "is_biased_choice":false,"side_choice": "RIGHT", "trial_number":3,"observed_reward":0,"unobserved_reward":1},{"RT":2995,"time": "2018-08-15 03:27:07pm", "schedule_type": "STATIC", "schedule_name": "random_17", "is_biased_choice":true,"side_choice": "LEFT", "trial_number":4,"observed_reward":0,"unobserved_reward":0},{"RT":2233,"time": "2018-08-15 03:27:09pm", "schedule_type": "STATIC", "schedule_name": "random_17", "is_biased_choice":false,"side_choice": "RIGHT", "trial_number":5,"observed_reward":0,"unobserved_reward":0},{"RT":2852,"time": "2018-08-15 03:27:12pm", "schedule_type": "STATIC", "schedule_name": "random_17", "is_biased_choice":true,"side_choice": "LEFT", "trial_number":6,"observed_reward":1,"unobserved_reward":0},{"RT":2332,"time": "2018-08-15 03:27:14pm", "schedule_type": "STATIC", "schedule_name": "random_17", "is_biased_choice":true,"side_choice": "LEFT", "trial_number":7,"observed_reward":0,"unobserved_reward":0},{"RT":3101,"time": "2018-08-15 03:27:17pm", "schedule_type": "STATIC", "schedule_name": "random_17", "is_biased_choice":true,"side_choice": "LEFT", "trial_number":8,"observed_reward":0,"unobserved_reward":0},{"RT":2416,"time": "2018-08-15 03:27:20pm", "schedule_type": "STATIC", "schedule_name": "random_17", "is_biased_choice":true,"side_choice": "LEFT", "trial_number":9,"observed_reward":0,"unobserved_reward":1},{"RT":2401,"time": "2018-08-15 03:27:22pm", "schedule_type": "STATIC", "schedule_name": "random_17", "is_biased_choice":true,"side_choice": "LEFT", "trial_number":10,"observed_reward":1,"unobserved_reward":0},{"RT":4241,"time": "2018-08-15 03:27:26pm", "schedule_type": "STATIC", "schedule_name": "random_17", "is_biased_choice":true,"side_choice": "LEFT", "trial_number":11,"observed_reward":1,"unobserved_reward":1},{"RT":2475,"time": "2018-08-15 03:27:29pm", "schedule_type": "STATIC", "schedule_name": "random_17", "is_biased_choice":true,"side_choice": "LEFT", "trial_number":12,"observed_reward":0,"unobserved_reward":0},{"RT":2273,"time": "2018-08-15 03:27:31pm", "schedule_type": "STATIC", "schedule_name": "random_17", "is_biased_choice":true,"side_choice": "LEFT", "trial_number":13,"observed_reward":1,"unobserved_reward":1},{"RT":2252,"time": "2018-08-15 03:27:33pm", "schedule_type": "STATIC", "schedule_name": "random_17", "is_biased_choice":true,"side_choice": "LEFT", "trial_number":14,"observed_reward":0,"unobserved_reward":0},{"RT":2547,"time": "2018-08-15 03:27:36pm", "schedule_type": "STATIC", "schedule_name": "random_17", "is_biased_choice":true,"side_choice": "LEFT", "trial_number":15,"observed_reward":0,"unobserved_reward":0},{"RT":2468,"time": "2018-08-15 03:27:38pm", "schedule_type": "STATIC", "schedule_name": "random_17", "is_biased_choice":true,"side_choice": "LEFT", "trial_number":16,"observed_reward":0,"unobserved_reward":1},{"RT":2269,"time": "2018-08-15 03:27:40pm", "schedule_type": "STATIC", "schedule_name": "random_17", "is_biased_choice":true,"side_choice": "LEFT", "trial_number":17,"observed_reward":0,"unobserved_reward":0},{"RT":2507,"time": "2018-08-15 03:27:43pm", "schedule_type": "STATIC", "schedule_name": "random_17", "is_biased_choice":true,"side_choice": "LEFT", "trial_number":18,"observed_reward":0,"unobserved_reward":0},{"RT":2612,"time": "2018-08-15 03:27:46pm", "schedule_type": "STATIC", "schedule_name": "random_17", "is_biased_choice":true,"side_choice": "LEFT", "trial_number":19,"observed_reward":1,"unobserved_reward":0},{"RT":2298,"time": "2018-08-15 03:27:48pm", "schedule_type": "STATIC", "schedule_name": "random_17", "is_biased_choice":true,"side_choice": "LEFT", "trial_number":20,"observed_reward":0,"unobserved_reward":1},{"RT":2361,"time": "2018-08-15 03:27:50pm", "schedule_type": "STATIC", "schedule_name": "random_17", "is_biased_choice":false,"side_choice": "RIGHT", "trial_number":21,"observed_reward":0,"unobserved_reward":1},{"RT":2167,"time": "2018-08-15 03:27:52pm", "schedule_type": "STATIC", "schedule_name": "random_17", "is_biased_choice":false,"side_choice": "RIGHT", "trial_number":22,"observed_reward":0,"unobserved_reward":0},{"RT":2238,"time": "2018-08-15 03:27:55pm", "schedule_type": "STATIC", "schedule_name": "random_17", "is_biased_choice":false,"side_choice": "RIGHT", "trial_number":23,"observed_reward":0,"unobserved_reward":0},{"RT":4120,"time": "2018-08-15 03:27:59pm", "schedule_type": "STATIC", "schedule_name": "random_17", "is_biased_choice":false,"side_choice": "RIGHT", "trial_number":24,"observed_reward":1,"unobserved_reward":0},{"RT":2410,"time": "2018-08-15 03:28:01pm", "schedule_type": "STATIC", "schedule_name": "random_17", "is_biased_choice":false,"side_choice": "RIGHT", "trial_number":25,"observed_reward":0,"unobserved_reward":0},{"RT":2009,"time": "2018-08-15 03:28:03pm", "schedule_type": "STATIC", "schedule_name": "random_17", "is_biased_choice":false,"side_choice": "RIGHT", "trial_number":26,"observed_reward":0,"unobserved_reward":1},{"RT":2438,"time": "2018-08-15 03:28:06pm", "schedule_type": "STATIC", "schedule_name": "random_17", "is_biased_choice":false,"side_choice": "RIGHT", "trial_number":27,"observed_reward":0,"unobserved_reward":0},{"RT":1947,"time": "2018-08-15 03:28:08pm", "schedule_type": "STATIC", "schedule_name": "random_17", "is_biased_choice":false,"side_choice": "RIGHT", "trial_number":28,"observed_reward":0,"unobserved_reward":0},{"RT":2935,"time": "2018-08-15 03:28:11pm", "schedule_type": "STATIC", "schedule_name": "random_17", "is_biased_choice":false,"side_choice": "RIGHT", "trial_number":29,"observed_reward":0,"unobserved_reward":1},{"RT":2483,"time": "2018-08-15 03:28:13pm", "schedule_type": "STATIC", "schedule_name": "random_17", "is_biased_choice":false,"side_choice": "RIGHT", "trial_number":30,"observed_reward":1,"unobserved_reward":0},{"RT":2023,"time": "2018-08-15 03:28:15pm", "schedule_type": "STATIC", "schedule_name": "random_17", "is_biased_choice":false,"side_choice": "RIGHT", "trial_number":31,"observed_reward":0,"unobserved_reward":1},{"RT":2754,"time": "2018-08-15 03:28:18pm", "schedule_type": "STATIC", "schedule_name": "random_17", "is_biased_choice":false,"side_choice": "RIGHT", "trial_number":32,"observed_reward":1,"unobserved_reward":0},{"RT":2554,"time": "2018-08-15 03:28:20pm", "schedule_type": "STATIC", "schedule_name": "random_17", "is_biased_choice":false,"side_choice": "RIGHT", "trial_number":33,"observed_reward":1,"unobserved_reward":0},{"RT":2563,"time": "2018-08-15 03:28:23pm", "schedule_type": "STATIC", "schedule_name": "random_17", "is_biased_choice":false,"side_choice": "RIGHT", "trial_number":34,"observed_reward":1,"unobserved_reward":0},{"RT":2045,"time": "2018-08-15 03:28:25pm", "schedule_type": "STATIC", "schedule_name": "random_17", "is_biased_choice":false,"side_choice": "RIGHT", "trial_number":35,"observed_reward":0,"unobserved_reward":0},{"RT":2502,"time": "2018-08-15 03:28:27pm", "schedule_type": "STATIC", "schedule_name": "random_17", "is_biased_choice":false,"side_choice": "RIGHT", "trial_number":36,"observed_reward":0,"unobserved_reward":0},{"RT":2414,"time": "2018-08-15 03:28:30pm", "schedule_type": "STATIC", "schedule_name": "random_17", "is_biased_choice":false,"side_choice": "RIGHT", "trial_number":37,"observed_reward":1,"unobserved_reward":1},{"RT":2193,"time": "2018-08-15 03:28:32pm", "schedule_type": "STATIC", "schedule_name": "random_17", "is_biased_choice":false,"side_choice": "RIGHT", "trial_number":38,"observed_reward":0,"unobserved_reward":0},{"RT":2134,"time": "2018-08-15 03:28:34pm", "schedule_type": "STATIC", "schedule_name": "random_17", "is_biased_choice":false,"side_choice": "RIGHT", "trial_number":39,"observed_reward":0,"unobserved_reward":0},{"RT":2114,"time": "2018-08-15 03:28:36pm", "schedule_type": "STATIC", "schedule_name": "random_17", "is_biased_choice":false,"side_choice": "RIGHT", "trial_number":40,"observed_reward":0,"unobserved_reward":0},{"RT":1995,"time": "2018-08-15 03:28:38pm", "schedule_type": "STATIC", "schedule_name": "random_17", "is_biased_choice":false,"side_choice": "RIGHT", "trial_number":41,"observed_reward":1,"unobserved_reward":0},{"RT":2482,"time": "2018-08-15 03:28:41pm", "schedule_type": "STATIC", "schedule_name": "random_17", "is_biased_choice":false,"side_choice": "RIGHT", "trial_number":42,"observed_reward":0,"unobserved_reward":0},{"RT":2533,"time": "2018-08-15 03:28:43pm", "schedule_type": "STATIC", "schedule_name": "random_17", "is_biased_choice":false,"side_choice": "RIGHT", "trial_number":43,"observed_reward":0,"unobserved_reward":1},{"RT":2185,"time": "2018-08-15 03:28:45pm", "schedule_type": "STATIC", "schedule_name": "random_17", "is_biased_choice":false,"side_choice": "RIGHT", "trial_number":44,"observed_reward":0,"unobserved_reward":0},{"RT":2416,"time": "2018-08-15 03:28:48pm", "schedule_type": "STATIC", "schedule_name": "random_17", "is_biased_choice":false,"side_choice": "RIGHT", "trial_number":45,"observed_reward":0,"unobserved_reward":0},{"RT":2118,"time": "2018-08-15 03:28:50pm", "schedule_type": "STATIC", "schedule_name": "random_17", "is_biased_choice":false,"side_choice": "RIGHT", "trial_number":46,"observed_reward":0,"unobserved_reward":0},{"RT":2151,"time": "2018-08-15 03:28:52pm", "schedule_type": "STATIC", "schedule_name": "random_17", "is_biased_choice":false,"side_choice": "RIGHT", "trial_number":47,"observed_reward":0,"unobserved_reward":0},{"RT":2248,"time": "2018-08-15 03:28:54pm", "schedule_type": "STATIC", "schedule_name": "random_17", "is_biased_choice":false,"side_choice": "RIGHT", "trial_number":48,"observed_reward":0,"unobserved_reward":0},{"RT":2556,"time": "2018-08-15 03:28:57pm", "schedule_type": "STATIC", "schedule_name": "random_17", "is_biased_choice":false,"side_choice": "RIGHT", "trial_number":49,"observed_reward":0,"unobserved_reward":0},{"RT":2015,"time": "2018-08-15 03:28:59pm", "schedule_type": "STATIC", "schedule_name": "random_17", "is_biased_choice":false,"side_choice": "RIGHT", "trial_number":50,"observed_reward":0,"unobserved_reward":1},{"RT":2870,"time": "2018-08-15 03:29:02pm", "schedule_type": "STATIC", "schedule_name": "random_17", "is_biased_choice":true,"side_choice": "LEFT", "trial_number":51,"observed_reward":0,"unobserved_reward":1},{"RT":2921,"time": "2018-08-15 03:29:05pm", "schedule_type": "STATIC", "schedule_name": "random_17", "is_biased_choice":true,"side_choice": "LEFT", "trial_number":52,"observed_reward":0,"unobserved_reward":0},{"RT":2105,"time": "2018-08-15 03:29:07pm", "schedule_type": "STATIC", "schedule_name": "random_17", "is_biased_choice":true,"side_choice": "LEFT", "trial_number":53,"observed_reward":1,"unobserved_reward":0},{"RT":2028,"time": "2018-08-15 03:29:09pm", "schedule_type": "STATIC", "schedule_name": "random_17", "is_biased_choice":true,"side_choice": "LEFT", "trial_number":54,"observed_reward":0,"unobserved_reward":0},{"RT":2094,"time": "2018-08-15 03:29:13pm", "schedule_type": "STATIC", "schedule_name": "random_17", "is_biased_choice":true,"side_choice": "LEFT", "trial_number":55,"observed_reward":1,"unobserved_reward":1},{"RT":2536,"time": "2018-08-15 03:29:15pm", "schedule_type": "STATIC", "schedule_name": "random_17", "is_biased_choice":true,"side_choice": "LEFT", "trial_number":56,"observed_reward":0,"unobserved_reward":1},{"RT":2290,"time": "2018-08-15 03:29:16pm", "schedule_type": "STATIC", "schedule_name": "random_17", "is_biased_choice":true,"side_choice": "LEFT", "trial_number":57,"observed_reward":0,"unobserved_reward":0},{"RT":2252,"time": "2018-08-15 03:29:18pm", "schedule_type": "STATIC", "schedule_name": "random_17", "is_biased_choice":true,"side_choice": "LEFT", "trial_number":58,"observed_reward":0,"unobserved_reward":1},{"RT":2597,"time": "2018-08-15 03:29:21pm", "schedule_type": "STATIC", "schedule_name": "random_17", "is_biased_choice":true,"side_choice": "LEFT", "trial_number":59,"observed_reward":0,"unobserved_reward":1},{"RT":2278,"time": "2018-08-15 03:29:23pm", "schedule_type": "STATIC", "schedule_name": "random_17", "is_biased_choice":false,"side_choice": "RIGHT", "trial_number":60,"observed_reward":1,"unobserved_reward":0},{"RT":2246,"time": "2018-08-15 03:29:25pm", "schedule_type": "STATIC", "schedule_name": "random_17", "is_biased_choice":false,"side_choice": "RIGHT", "trial_number":61,"observed_reward":0,"unobserved_reward":0},{"RT":2170,"time": "2018-08-15 03:29:27pm", "schedule_type": "STATIC", "schedule_name": "random_17", "is_biased_choice":false,"side_choice": "RIGHT", "trial_number":62,"observed_reward":0,"unobserved_reward":1},{"RT":2117,"time": "2018-08-15 03:29:30pm", "schedule_type": "STATIC", "schedule_name": "random_17", "is_biased_choice":false,"side_choice": "RIGHT", "trial_number":63,"observed_reward":1,"unobserved_reward":0},{"RT":2633,"time": "2018-08-15 03:29:32pm", "schedule_type": "STATIC", "schedule_name": "random_17", "is_biased_choice":false,"side_choice": "RIGHT", "trial_number":64,"observed_reward":0,"unobserved_reward":0},{"RT":2481,"time": "2018-08-15 03:29:35pm", "schedule_type": "STATIC", "schedule_name": "random_17", "is_biased_choice":false,"side_choice": "RIGHT", "trial_number":65,"observed_reward":0,"unobserved_reward":0},{"RT":2500,"time": "2018-08-15 03:29:37pm", "schedule_type": "STATIC", "schedule_name": "random_17", "is_biased_choice":false,"side_choice": "RIGHT", "trial_number":66,"observed_reward":1,"unobserved_reward":0},{"RT":2257,"time": "2018-08-15 03:29:39pm", "schedule_type": "STATIC", "schedule_name": "random_17", "is_biased_choice":false,"side_choice": "RIGHT", "trial_number":67,"observed_reward":0,"unobserved_reward":0},{"RT":2480,"time": "2018-08-15 03:29:42pm", "schedule_type": "STATIC", "schedule_name": "random_17", "is_biased_choice":false,"side_choice": "RIGHT", "trial_number":68,"observed_reward":1,"unobserved_reward":0},{"RT":2610,"time": "2018-08-15 03:29:46pm", "schedule_type": "STATIC", "schedule_name": "random_17", "is_biased_choice":false,"side_choice": "RIGHT", "trial_number":69,"observed_reward":1,"unobserved_reward":0},{"RT":2857,"time": "2018-08-15 03:29:48pm", "schedule_type": "STATIC", "schedule_name": "random_17", "is_biased_choice":false,"side_choice": "RIGHT", "trial_number":70,"observed_reward":0,"unobserved_reward":0},{"RT":3186,"time": "2018-08-15 03:29:50pm", "schedule_type": "STATIC", "schedule_name": "random_17", "is_biased_choice":false,"side_choice": "RIGHT", "trial_number":71,"observed_reward":0,"unobserved_reward":0},{"RT":2563,"time": "2018-08-15 03:29:53pm", "schedule_type": "STATIC", "schedule_name": "random_17", "is_biased_choice":false,"side_choice": "RIGHT", "trial_number":72,"observed_reward":1,"unobserved_reward":0},{"RT":2317,"time": "2018-08-15 03:29:55pm", "schedule_type": "STATIC", "schedule_name": "random_17", "is_biased_choice":false,"side_choice": "RIGHT", "trial_number":73,"observed_reward":0,"unobserved_reward":1},{"RT":2325,"time": "2018-08-15 03:29:58pm", "schedule_type": "STATIC", "schedule_name": "random_17", "is_biased_choice":false,"side_choice": "RIGHT", "trial_number":74,"observed_reward":0,"unobserved_reward":1},{"RT":2486,"time": "2018-08-15 03:30:00pm", "schedule_type": "STATIC", "schedule_name": "random_17", "is_biased_choice":false,"side_choice": "RIGHT", "trial_number":75,"observed_reward":0,"unobserved_reward":0},{"RT":2688,"time": "2018-08-15 03:30:03pm", "schedule_type": "STATIC", "schedule_name": "random_17", "is_biased_choice":false,"side_choice": "RIGHT", "trial_number":76,"observed_reward":1,"unobserved_reward":0},{"RT":2580,"time": "2018-08-15 03:30:05pm", "schedule_type": "STATIC", "schedule_name": "random_17", "is_biased_choice":false,"side_choice": "RIGHT", "trial_number":77,"observed_reward":0,"unobserved_reward":1},{"RT":2091,"time": "2018-08-15 03:30:08pm", "schedule_type": "STATIC", "schedule_name": "random_17", "is_biased_choice":false,"side_choice": "RIGHT", "trial_number":78,"observed_reward":0,"unobserved_reward":0},{"RT":2686,"time": "2018-08-15 03:30:10pm", "schedule_type": "STATIC", "schedule_name": "random_17", "is_biased_choice":false,"side_choice": "RIGHT", "trial_number":79,"observed_reward":0,"unobserved_reward":0},{"RT":2615,"time": "2018-08-15 03:30:13pm", "schedule_type": "STATIC", "schedule_name": "random_17", "is_biased_choice":false,"side_choice": "RIGHT", "trial_number":80,"observed_reward":0,"unobserved_reward":1},{"RT":2738,"time": "2018-08-15 03:30:16pm", "schedule_type": "STATIC", "schedule_name": "random_17", "is_biased_choice":false,"side_choice": "RIGHT", "trial_number":81,"observed_reward":0,"unobserved_reward":1},{"RT":2783,"time": "2018-08-15 03:30:18pm", "schedule_type": "STATIC", "schedule_name": "random_17", "is_biased_choice":false,"side_choice": "RIGHT", "trial_number":82,"observed_reward":0,"unobserved_reward":1},{"RT":2601,"time": "2018-08-15 03:30:21pm", "schedule_type": "STATIC", "schedule_name": "random_17", "is_biased_choice":false,"side_choice": "RIGHT", "trial_number":83,"observed_reward":0,"unobserved_reward":0},{"RT":2613,"time": "2018-08-15 03:30:24pm", "schedule_type": "STATIC", "schedule_name": "random_17", "is_biased_choice":false,"side_choice": "RIGHT", "trial_number":84,"observed_reward":0,"unobserved_reward":0},{"RT":2226,"time": "2018-08-15 03:30:26pm", "schedule_type": "STATIC", "schedule_name": "random_17", "is_biased_choice":false,"side_choice": "RIGHT", "trial_number":85,"observed_reward":0,"unobserved_reward":0},{"RT":2082,"time": "2018-08-15 03:30:28pm", "schedule_type": "STATIC", "schedule_name": "random_17", "is_biased_choice":false,"side_choice": "RIGHT", "trial_number":86,"observed_reward":0,"unobserved_reward":0},{"RT":2280,"time": "2018-08-15 03:30:30pm", "schedule_type": "STATIC", "schedule_name": "random_17", "is_biased_choice":false,"side_choice": "RIGHT", "trial_number":87,"observed_reward":0,"unobserved_reward":0},{"RT":2195,"time": "2018-08-15 03:30:32pm", "schedule_type": "STATIC", "schedule_name": "random_17", "is_biased_choice":false,"side_choice": "RIGHT", "trial_number":88,"observed_reward":0,"unobserved_reward":0},{"RT":2250,"time": "2018-08-15 03:30:35pm", "schedule_type": "STATIC", "schedule_name": "random_17", "is_biased_choice":false,"side_choice": "RIGHT", "trial_number":89,"observed_reward":0,"unobserved_reward":0},{"RT":2506,"time": "2018-08-15 03:30:37pm", "schedule_type": "STATIC", "schedule_name": "random_17", "is_biased_choice":false,"side_choice": "RIGHT", "trial_number":90,"observed_reward":0,"unobserved_reward":0},{"RT":2409,"time": "2018-08-15 03:30:40pm", "schedule_type": "STATIC", "schedule_name": "random_17", "is_biased_choice":false,"side_choice": "RIGHT", "trial_number":91,"observed_reward":0,"unobserved_reward":0},{"RT":3037,"time": "2018-08-15 03:30:43pm", "schedule_type": "STATIC", "schedule_name": "random_17", "is_biased_choice":false,"side_choice": "RIGHT", "trial_number":92,"observed_reward":0,"unobserved_reward":0},{"RT":2518,"time": "2018-08-15 03:30:45pm", "schedule_type": "STATIC", "schedule_name": "random_17", "is_biased_choice":false,"side_choice": "RIGHT", "trial_number":93,"observed_reward":0,"unobserved_reward":1},{"RT":2477,"time": "2018-08-15 03:30:48pm", "schedule_type": "STATIC", "schedule_name": "random_17", "is_biased_choice":false,"side_choice": "RIGHT", "trial_number":94,"observed_reward":0,"unobserved_reward":0},{"RT":2488,"time": "2018-08-15 03:30:50pm", "schedule_type": "STATIC", "schedule_name": "random_17", "is_biased_choice":false,"side_choice": "RIGHT", "trial_number":95,"observed_reward":0,"unobserved_reward":0},{"RT":2501,"time": "2018-08-15 03:30:53pm", "schedule_type": "STATIC", "schedule_name": "random_17", "is_biased_choice":false,"side_choice": "RIGHT", "trial_number":96,"observed_reward":0,"unobserved_reward":0},{"RT":2505,"time": "2018-08-15 03:30:55pm", "schedule_type": "STATIC", "schedule_name": "random_17", "is_biased_choice":false,"side_choice": "RIGHT", "trial_number":97,"observed_reward":0,"unobserved_reward":0},{"RT":2071,"time": "2018-08-15 03:30:57pm", "schedule_type": "STATIC", "schedule_name": "random_17", "is_biased_choice":false,"side_choice": "RIGHT", "trial_number":98,"observed_reward":1,"unobserved_reward":1},{"RT":2550,"time": "2018-08-15 03:31:00pm", "schedule_type": "STATIC", "schedule_name": "random_17", "is_biased_choice":false,"side_choice": "RIGHT", "trial_number":99,"observed_reward":0,"unobserved_reward":1},