trial_number, time, schedule_type, schedule_name, is_biased_choice, side_choice, RT, observed_reward, unobserved_reward, biased_reward, unbiased_reward
0,2018-08-15 03:27:40pm, STATIC, random_17, false, LEFT, 12404, 0, 0, 0, 0
1,2018-08-15 03:27:46pm, STATIC, random_17, true, RIGHT, 5864, 0, 0, 0, 0
2,2018-08-15 03:27:50pm, STATIC, random_17, true, RIGHT, 4194, 0, 0, 0, 0
3,2018-08-15 03:27:52pm, STATIC, random_17, false, LEFT, 2758, 0, 1, 1, 0
4,2018-08-15 03:27:55pm, STATIC, random_17, true, RIGHT, 2649, 0, 0, 0, 0
5,2018-08-15 03:27:58pm, STATIC, random_17, false, LEFT, 2551, 0, 0, 0, 0
6,2018-08-15 03:28:01pm, STATIC, random_17, false, LEFT, 3313, 0, 1, 1, 0
7,2018-08-15 03:28:03pm, STATIC, random_17, false, LEFT, 2488, 0, 0, 0, 0
8,2018-08-15 03:28:06pm, STATIC, random_17, true, RIGHT, 2625, 0, 0, 0, 0
9,2018-08-15 03:28:08pm, STATIC, random_17, false, LEFT, 2447, 1, 0, 0, 1
10,2018-08-15 03:28:11pm, STATIC, random_17, false, LEFT, 2680, 0, 1, 1, 0
11,2018-08-15 03:28:14pm, STATIC, random_17, true, RIGHT, 2584, 1, 1, 1, 1
12,2018-08-15 03:28:16pm, STATIC, random_17, false, LEFT, 2352, 0, 0, 0, 0
13,2018-08-15 03:28:18pm, STATIC, random_17, false, LEFT, 2329, 1, 1, 1, 1
14,2018-08-15 03:28:21pm, STATIC, random_17, true, RIGHT, 2463, 0, 0, 0, 0
15,2018-08-15 03:28:23pm, STATIC, random_17, true, RIGHT, 2266, 0, 0, 0, 0
16,2018-08-15 03:28:25pm, STATIC, random_17, true, RIGHT, 2351, 0, 1, 0, 1
17,2018-08-15 03:28:28pm, STATIC, random_17, true, RIGHT, 2288, 0, 0, 0, 0
18,2018-08-15 03:28:30pm, STATIC, random_17, false, LEFT, 2480, 0, 0, 0, 0
19,2018-08-15 03:28:33pm, STATIC, random_17, true, RIGHT, 2424, 1, 0, 1, 0
20,2018-08-15 03:28:35pm, STATIC, random_17, true, RIGHT, 2664, 0, 1, 0, 1
21,2018-08-15 03:28:39pm, STATIC, random_17, true, RIGHT, 2352, 1, 0, 1, 0
22,2018-08-15 03:28:43pm, STATIC, random_17, false, LEFT, 4241, 0, 0, 0, 0
23,2018-08-15 03:28:45pm, STATIC, random_17, true, RIGHT, 3079, 0, 0, 0, 0
24,2018-08-15 03:28:47pm, STATIC, random_17, false, LEFT, 2297, 1, 0, 0, 1
25,2018-08-15 03:28:50pm, STATIC, random_17, false, LEFT, 2631, 0, 0, 0, 0
26,2018-08-15 03:28:52pm, STATIC, random_17, true, RIGHT, 2272, 1, 0, 1, 0
27,2018-08-15 03:28:55pm, STATIC, random_17, true, RIGHT, 2353, 0, 0, 0, 0
28,2018-08-15 03:28:57pm, STATIC, random_17, true, RIGHT, 2449, 0, 0, 0, 0
29,2018-08-15 03:28:59pm, STATIC, random_17, true, RIGHT, 2288, 1, 0, 1, 0
30,2018-08-15 03:29:02pm, STATIC, random_17, false, LEFT, 2544, 1, 0, 0, 1
31,2018-08-15 03:29:04pm, STATIC, random_17, true, RIGHT, 2320, 1, 0, 1, 0
32,2018-08-15 03:29:07pm, STATIC, random_17, true, RIGHT, 2383, 0, 1, 0, 1
33,2018-08-15 03:29:09pm, STATIC, random_17, false, LEFT, 2386, 1, 0, 0, 1
34,2018-08-15 03:29:13pm, STATIC, random_17, false, LEFT, 2406, 1, 0, 0, 1
35,2018-08-15 03:29:16pm, STATIC, random_17, true, RIGHT, 3889, 0, 0, 0, 0
36,2018-08-15 03:29:18pm, STATIC, random_17, true, RIGHT, 3048, 0, 0, 0, 0
37,2018-08-15 03:29:21pm, STATIC, random_17, false, LEFT, 2369, 1, 1, 1, 1
38,2018-08-15 03:29:24pm, STATIC, random_17, true, RIGHT, 3215, 0, 0, 0, 0
39,2018-08-15 03:29:26pm, STATIC, random_17, false, LEFT, 2576, 0, 0, 0, 0
40,2018-08-15 03:29:29pm, STATIC, random_17, true, RIGHT, 2112, 0, 0, 0, 0
41,2018-08-15 03:29:31pm, STATIC, random_17, false, LEFT, 2240, 1, 0, 0, 1
42,2018-08-15 03:29:33pm, STATIC, random_17, false, LEFT, 2369, 0, 0, 0, 0
43,2018-08-15 03:29:36pm, STATIC, random_17, true, RIGHT, 2816, 1, 0, 1, 0
44,2018-08-15 03:29:38pm, STATIC, random_17, false, LEFT, 2312, 0, 0, 0, 0
45,2018-08-15 03:29:40pm, STATIC, random_17, true, RIGHT, 2185, 0, 0, 0, 0
46,2018-08-15 03:29:43pm, STATIC, random_17, false, LEFT, 2263, 0, 0, 0, 0
47,2018-08-15 03:29:45pm, STATIC, random_17, false, LEFT, 2328, 0, 0, 0, 0
48,2018-08-15 03:29:47pm, STATIC, random_17, true, RIGHT, 2272, 0, 0, 0, 0
49,2018-08-15 03:29:50pm, STATIC, random_17, false, LEFT, 2664, 0, 0, 0, 0
50,2018-08-15 03:29:52pm, STATIC, random_17, true, RIGHT, 2256, 1, 0, 1, 0
51,2018-08-15 03:29:55pm, STATIC, random_17, true, RIGHT, 2496, 0, 1, 0, 1
52,2018-08-15 03:29:57pm, STATIC, random_17, true, RIGHT, 2447, 0, 0, 0, 0
53,2018-08-15 03:29:59pm, STATIC, random_17, false, LEFT, 2272, 0, 1, 1, 0
54,2018-08-15 03:30:02pm, STATIC, random_17, true, RIGHT, 2176, 0, 0, 0, 0
55,2018-08-15 03:30:04pm, STATIC, random_17, false, LEFT, 2353, 1, 1, 1, 1
56,2018-08-15 03:30:07pm, STATIC, random_17, false, LEFT, 2488, 1, 0, 0, 1
57,2018-08-15 03:30:09pm, STATIC, random_17, true, RIGHT, 2369, 0, 0, 0, 0
58,2018-08-15 03:30:12pm, STATIC, random_17, false, LEFT, 3000, 1, 0, 0, 1
59,2018-08-15 03:30:14pm, STATIC, random_17, false, LEFT, 2288, 1, 0, 0, 1
60,2018-08-15 03:30:17pm, STATIC, random_17, false, LEFT, 2336, 1, 0, 0, 1
61,2018-08-15 03:30:19pm, STATIC, random_17, false, LEFT, 2272, 0, 0, 0, 0
62,2018-08-15 03:30:22pm, STATIC, random_17, true, RIGHT, 2808, 1, 0, 1, 0
63,2018-08-15 03:30:24pm, STATIC, random_17, true, RIGHT, 2871, 0, 1, 0, 1
64,2018-08-15 03:30:27pm, STATIC, random_17, false, LEFT, 2898, 0, 0, 0, 0
65,2018-08-15 03:30:30pm, STATIC, random_17, false, LEFT, 2735, 0, 0, 0, 0
66,2018-08-15 03:30:32pm, STATIC, random_17, true, RIGHT, 2391, 0, 1, 0, 1
67,2018-08-15 03:30:35pm, STATIC, random_17, false, LEFT, 2313, 0, 0, 0, 0
68,2018-08-15 03:30:37pm, STATIC, random_17, true, RIGHT, 2336, 0, 1, 0, 1
69,2018-08-15 03:30:41pm, STATIC, random_17, false, LEFT, 3359, 1, 0, 0, 1
70,2018-08-15 03:30:43pm, STATIC, random_17, false, LEFT, 2337, 0, 0, 0, 0
71,2018-08-15 03:30:45pm, STATIC, random_17, true, RIGHT, 2256, 0, 0, 0, 0
72,2018-08-15 03:30:47pm, STATIC, random_17, true, RIGHT, 2128, 0, 1, 0, 1
73,2018-08-15 03:30:50pm, STATIC, random_17, false, LEFT, 2328, 0, 1, 1, 0
74,2018-08-15 03:30:52pm, STATIC, random_17, true, RIGHT, 2241, 1, 0, 1, 0
75,2018-08-15 03:30:54pm, STATIC, random_17, false, LEFT, 2680, 0, 0, 0, 0
76,2018-08-15 03:30:57pm, STATIC, random_17, true, RIGHT, 2320, 0, 1, 0, 1
77,2018-08-15 03:31:01pm, STATIC, random_17, true, RIGHT, 3593, 1, 0, 1, 0
78,2018-08-15 03:31:03pm, STATIC, random_17, true, RIGHT, 2288, 0, 0, 0, 0
79,2018-08-15 03:31:05pm, STATIC, random_17, false, LEFT, 2384, 0, 0, 0, 0
80,2018-08-15 03:31:08pm, STATIC, random_17, true, RIGHT, 2704, 1, 0, 1, 0
81,2018-08-15 03:31:11pm, STATIC, random_17, true, RIGHT, 2975, 1, 0, 1, 0
82,2018-08-15 03:31:13pm, STATIC, random_17, false, LEFT, 2376, 0, 1, 1, 0
83,2018-08-15 03:31:15pm, STATIC, random_17, true, RIGHT, 2328, 0, 0, 0, 0
84,2018-08-15 03:31:18pm, STATIC, random_17, false, LEFT, 2425, 0, 0, 0, 0
85,2018-08-15 03:31:20pm, STATIC, random_17, true, RIGHT, 2184, 0, 0, 0, 0
86,2018-08-15 03:31:22pm, STATIC, random_17, true, RIGHT, 2336, 0, 0, 0, 0
87,2018-08-15 03:31:25pm, STATIC, random_17, true, RIGHT, 2288, 0, 0, 0, 0
88,2018-08-15 03:31:27pm, STATIC, random_17, true, RIGHT, 2136, 0, 0, 0, 0
89,2018-08-15 03:31:29pm, STATIC, random_17, true, RIGHT, 2312, 0, 0, 0, 0
90,2018-08-15 03:31:31pm, STATIC, random_17, true, RIGHT, 2328, 0, 0, 0, 0
91,2018-08-15 03:31:34pm, STATIC, random_17, false, LEFT, 2360, 0, 0, 0, 0
92,2018-08-15 03:31:36pm, STATIC, random_17, true, RIGHT, 2633, 0, 0, 0, 0
93,2018-08-15 03:31:39pm, STATIC, random_17, false, LEFT, 2736, 0, 1, 1, 0
94,2018-08-15 03:31:41pm, STATIC, random_17, true, RIGHT, 2312, 0, 0, 0, 0
95,2018-08-15 03:31:44pm, STATIC, random_17, false, LEFT, 2288, 0, 0, 0, 0
96,2018-08-15 03:31:46pm, STATIC, random_17, false, LEFT, 2656, 0, 0, 0, 0
97,2018-08-15 03:31:49pm, STATIC, random_17, false, LEFT, 2831, 0, 0, 0, 0
98,2018-08-15 03:31:52pm, STATIC, random_17, false, LEFT, 2360, 1, 1, 1, 1
99,2018-08-15 03:31:54pm, STATIC, random_17, false, LEFT, 2649, 0, 1, 1, 0
