[{"RT":3153,"time": "2018-08-15 03:27:43pm", "schedule_type": "STATIC", "schedule_name": "random_1", "is_biased_choice":true,"side_choice": "LEFT", "trial_number":0,"observed_reward":0,"unobserved_reward":1},{"RT":3325,"time": "2018-08-15 03:27:46pm", "schedule_type": "STATIC", "schedule_name": "random_1", "is_biased_choice":false,"side_choice": "RIGHT", "trial_number":1,"observed_reward":0,"unobserved_reward":0},{"RT":2618,"time": "2018-08-15 03:27:49pm", "schedule_type": "STATIC", "schedule_name": "random_1", "is_biased_choice":false,"side_choice": "RIGHT", "trial_number":2,"observed_reward":0,"unobserved_reward":0},{"RT":2478,"time": "2018-08-15 03:27:51pm", "schedule_type": "STATIC", "schedule_name": "random_1", "is_biased_choice":false,"side_choice": "RIGHT", "trial_number":3,"observed_reward":0,"unobserved_reward":1},{"RT":2765,"time": "2018-08-15 03:27:54pm", "schedule_type": "STATIC", "schedule_name": "random_1", "is_biased_choice":true,"side_choice": "LEFT", "trial_number":4,"observed_reward":1,"unobserved_reward":1},{"RT":3134,"time": "2018-08-15 03:27:57pm", "schedule_type": "STATIC", "schedule_name": "random_1", "is_biased_choice":false,"side_choice": "RIGHT", "trial_number":5,"observed_reward":0,"unobserved_reward":0},{"RT":2366,"time": "2018-08-15 03:28:00pm", "schedule_type": "STATIC", "schedule_name": "random_1", "is_biased_choice":true,"side_choice": "LEFT", "trial_number":6,"observed_reward":0,"unobserved_reward":0},{"RT":2586,"time": "2018-08-15 03:28:02pm", "schedule_type": "STATIC", "schedule_name": "random_1", "is_biased_choice":true,"side_choice": "LEFT", "trial_number":7,"observed_reward":1,"unobserved_reward":0},{"RT":2731,"time": "2018-08-15 03:28:05pm", "schedule_type": "STATIC", "schedule_name": "random_1", "is_biased_choice":false,"side_choice": "RIGHT", "trial_number":8,"observed_reward":0,"unobserved_reward":0},{"RT":2241,"time": "2018-08-15 03:28:07pm", "schedule_type": "STATIC", "schedule_name": "random_1", "is_biased_choice":false,"side_choice": "RIGHT", "trial_number":9,"observed_reward":1,"unobserved_reward":0},{"RT":2555,"time": "2018-08-15 03:28:10pm", "schedule_type": "STATIC", "schedule_name": "random_1", "is_biased_choice":false,"side_choice": "RIGHT", "trial_number":10,"observed_reward":0,"unobserved_reward":0},{"RT":2298,"time": "2018-08-15 03:28:12pm", "schedule_type": "STATIC", "schedule_name": "random_1", "is_biased_choice":false,"side_choice": "RIGHT", "trial_number":11,"observed_reward":0,"unobserved_reward":0},{"RT":2225,"time": "2018-08-15 03:28:14pm", "schedule_type": "STATIC", "schedule_name": "random_1", "is_biased_choice":true,"side_choice": "LEFT", "trial_number":12,"observed_reward":1,"unobserved_reward":0},{"RT":2465,"time": "2018-08-15 03:28:17pm", "schedule_type": "STATIC", "schedule_name": "random_1", "is_biased_choice":true,"side_choice": "LEFT", "trial_number":13,"observed_reward":1,"unobserved_reward":0},{"RT":2831,"time": "2018-08-15 03:28:20pm", "schedule_type": "STATIC", "schedule_name": "random_1", "is_biased_choice":true,"side_choice": "LEFT", "trial_number":14,"observed_reward":0,"unobserved_reward":0},{"RT":2350,"time": "2018-08-15 03:28:22pm", "schedule_type": "STATIC", "schedule_name": "random_1", "is_biased_choice":true,"side_choice": "LEFT", "trial_number":15,"observed_reward":0,"unobserved_reward":0},{"RT":2191,"time": "2018-08-15 03:28:24pm", "schedule_type": "STATIC", "schedule_name": "random_1", "is_biased_choice":false,"side_choice": "RIGHT", "trial_number":16,"observed_reward":0,"unobserved_reward":0},{"RT":2192,"time": "2018-08-15 03:28:26pm", "schedule_type": "STATIC", "schedule_name": "random_1", "is_biased_choice":false,"side_choice": "RIGHT", "trial_number":17,"observed_reward":1,"unobserved_reward":0},{"RT":2268,"time": "2018-08-15 03:28:29pm", "schedule_type": "STATIC", "schedule_name": "random_1", "is_biased_choice":true,"side_choice": "LEFT", "trial_number":18,"observed_reward":0,"unobserved_reward":0},{"RT":2152,"time": "2018-08-15 03:28:31pm", "schedule_type": "STATIC", "schedule_name": "random_1", "is_biased_choice":false,"side_choice": "RIGHT", "trial_number":19,"observed_reward":0,"unobserved_reward":0},{"RT":2198,"time": "2018-08-15 03:28:33pm", "schedule_type": "STATIC", "schedule_name": "random_1", "is_biased_choice":true,"side_choice": "LEFT", "trial_number":20,"observed_reward":0,"unobserved_reward":0},{"RT":2783,"time": "2018-08-15 03:28:36pm", "schedule_type": "STATIC", "schedule_name": "random_1", "is_biased_choice":true,"side_choice": "LEFT", "trial_number":21,"observed_reward":0,"unobserved_reward":0},{"RT":2217,"time": "2018-08-15 03:28:38pm", "schedule_type": "STATIC", "schedule_name": "random_1", "is_biased_choice":false,"side_choice": "RIGHT", "trial_number":22,"observed_reward":1,"unobserved_reward":0},{"RT":2241,"time": "2018-08-15 03:28:40pm", "schedule_type": "STATIC", "schedule_name": "random_1", "is_biased_choice":false,"side_choice": "RIGHT", "trial_number":23,"observed_reward":0,"unobserved_reward":0},{"RT":7473,"time": "2018-08-15 03:28:48pm", "schedule_type": "STATIC", "schedule_name": "random_1", "is_biased_choice":true,"side_choice": "LEFT", "trial_number":24,"observed_reward":0,"unobserved_reward":1},{"RT":2766,"time": "2018-08-15 03:28:50pm", "schedule_type": "STATIC", "schedule_name": "random_1", "is_biased_choice":true,"side_choice": "LEFT", "trial_number":25,"observed_reward":0,"unobserved_reward":0},{"RT":3241,"time": "2018-08-15 03:28:54pm", "schedule_type": "STATIC", "schedule_name": "random_1", "is_biased_choice":true,"side_choice": "LEFT", "trial_number":26,"observed_reward":0,"unobserved_reward":0},{"RT":2226,"time": "2018-08-15 03:28:56pm", "schedule_type": "STATIC", "schedule_name": "random_1", "is_biased_choice":false,"side_choice": "RIGHT", "trial_number":27,"observed_reward":1,"unobserved_reward":1},{"RT":2272,"time": "2018-08-15 03:28:58pm", "schedule_type": "STATIC", "schedule_name": "random_1", "is_biased_choice":true,"side_choice": "LEFT", "trial_number":28,"observed_reward":0,"unobserved_reward":1},{"RT":2133,"time": "2018-08-15 03:29:00pm", "schedule_type": "STATIC", "schedule_name": "random_1", "is_biased_choice":false,"side_choice": "RIGHT", "trial_number":29,"observed_reward":0,"unobserved_reward":1},{"RT":2264,"time": "2018-08-15 03:29:03pm", "schedule_type": "STATIC", "schedule_name": "random_1", "is_biased_choice":true,"side_choice": "LEFT", "trial_number":30,"observed_reward":0,"unobserved_reward":1},{"RT":2338,"time": "2018-08-15 03:29:05pm", "schedule_type": "STATIC", "schedule_name": "random_1", "is_biased_choice":false,"side_choice": "RIGHT", "trial_number":31,"observed_reward":1,"unobserved_reward":0},{"RT":2741,"time": "2018-08-15 03:29:08pm", "schedule_type": "STATIC", "schedule_name": "random_1", "is_biased_choice":false,"side_choice": "RIGHT", "trial_number":32,"observed_reward":1,"unobserved_reward":1},{"RT":2461,"time": "2018-08-15 03:29:10pm", "schedule_type": "STATIC", "schedule_name": "random_1", "is_biased_choice":false,"side_choice": "RIGHT", "trial_number":33,"observed_reward":0,"unobserved_reward":1},{"RT":2126,"time": "2018-08-15 03:29:14pm", "schedule_type": "STATIC", "schedule_name": "random_1", "is_biased_choice":true,"side_choice": "LEFT", "trial_number":34,"observed_reward":0,"unobserved_reward":0},{"RT":3058,"time": "2018-08-15 03:29:16pm", "schedule_type": "STATIC", "schedule_name": "random_1", "is_biased_choice":true,"side_choice": "LEFT", "trial_number":35,"observed_reward":1,"unobserved_reward":1},{"RT":3670,"time": "2018-08-15 03:29:19pm", "schedule_type": "STATIC", "schedule_name": "random_1", "is_biased_choice":false,"side_choice": "RIGHT", "trial_number":36,"observed_reward":0,"unobserved_reward":1},{"RT":2804,"time": "2018-08-15 03:29:22pm", "schedule_type": "STATIC", "schedule_name": "random_1", "is_biased_choice":true,"side_choice": "LEFT", "trial_number":37,"observed_reward":0,"unobserved_reward":0},{"RT":2372,"time": "2018-08-15 03:29:24pm", "schedule_type": "STATIC", "schedule_name": "random_1", "is_biased_choice":false,"side_choice": "RIGHT", "trial_number":38,"observed_reward":0,"unobserved_reward":1},{"RT":2160,"time": "2018-08-15 03:29:26pm", "schedule_type": "STATIC", "schedule_name": "random_1", "is_biased_choice":false,"side_choice": "RIGHT", "trial_number":39,"observed_reward":0,"unobserved_reward":0},{"RT":2079,"time": "2018-08-15 03:29:28pm", "schedule_type": "STATIC", "schedule_name": "random_1", "is_biased_choice":false,"side_choice": "RIGHT", "trial_number":40,"observed_reward":1,"unobserved_reward":1},{"RT":2160,"time": "2018-08-15 03:29:31pm", "schedule_type": "STATIC", "schedule_name": "random_1", "is_biased_choice":false,"side_choice": "RIGHT", "trial_number":41,"observed_reward":0,"unobserved_reward":1},{"RT":2644,"time": "2018-08-15 03:29:33pm", "schedule_type": "STATIC", "schedule_name": "random_1", "is_biased_choice":false,"side_choice": "RIGHT", "trial_number":42,"observed_reward":0,"unobserved_reward":0},{"RT":2231,"time": "2018-08-15 03:29:35pm", "schedule_type": "STATIC", "schedule_name": "random_1", "is_biased_choice":false,"side_choice": "RIGHT", "trial_number":43,"observed_reward":0,"unobserved_reward":0},{"RT":2119,"time": "2018-08-15 03:29:38pm", "schedule_type": "STATIC", "schedule_name": "random_1", "is_biased_choice":false,"side_choice": "RIGHT", "trial_number":44,"observed_reward":0,"unobserved_reward":0},{"RT":2459,"time": "2018-08-15 03:29:40pm", "schedule_type": "STATIC", "schedule_name": "random_1", "is_biased_choice":false,"side_choice": "RIGHT", "trial_number":45,"observed_reward":0,"unobserved_reward":0},{"RT":2208,"time": "2018-08-15 03:29:42pm", "schedule_type": "STATIC", "schedule_name": "random_1", "is_biased_choice":false,"side_choice": "RIGHT", "trial_number":46,"observed_reward":0,"unobserved_reward":1},{"RT":2246,"time": "2018-08-15 03:29:44pm", "schedule_type": "STATIC", "schedule_name": "random_1", "is_biased_choice":true,"side_choice": "LEFT", "trial_number":47,"observed_reward":1,"unobserved_reward":1},{"RT":2292,"time": "2018-08-15 03:29:47pm", "schedule_type": "STATIC", "schedule_name": "random_1", "is_biased_choice":true,"side_choice": "LEFT", "trial_number":48,"observed_reward":0,"unobserved_reward":0},{"RT":2083,"time": "2018-08-15 03:29:49pm", "schedule_type": "STATIC", "schedule_name": "random_1", "is_biased_choice":false,"side_choice": "RIGHT", "trial_number":49,"observed_reward":0,"unobserved_reward":1},{"RT":2313,"time": "2018-08-15 03:29:51pm", "schedule_type": "STATIC", "schedule_name": "random_1", "is_biased_choice":true,"side_choice": "LEFT", "trial_number":50,"observed_reward":0,"unobserved_reward":0},{"RT":2119,"time": "2018-08-15 03:29:53pm", "schedule_type": "STATIC", "schedule_name": "random_1", "is_biased_choice":false,"side_choice": "RIGHT", "trial_number":51,"observed_reward":0,"unobserved_reward":1},{"RT":2297,"time": "2018-08-15 03:29:56pm", "schedule_type": "STATIC", "schedule_name": "random_1", "is_biased_choice":false,"side_choice": "RIGHT", "trial_number":52,"observed_reward":0,"unobserved_reward":0},{"RT":2131,"time": "2018-08-15 03:29:58pm", "schedule_type": "STATIC", "schedule_name": "random_1", "is_biased_choice":false,"side_choice": "RIGHT", "trial_number":53,"observed_reward":0,"unobserved_reward":0},{"RT":2230,"time": "2018-08-15 03:30:00pm", "schedule_type": "STATIC", "schedule_name": "random_1", "is_biased_choice":true,"side_choice": "LEFT", "trial_number":54,"observed_reward":0,"unobserved_reward":0},{"RT":2116,"time": "2018-08-15 03:30:02pm", "schedule_type": "STATIC", "schedule_name": "random_1", "is_biased_choice":false,"side_choice": "RIGHT", "trial_number":55,"observed_reward":1,"unobserved_reward":0},{"RT":2483,"time": "2018-08-15 03:30:05pm", "schedule_type": "STATIC", "schedule_name": "random_1", "is_biased_choice":false,"side_choice": "RIGHT", "trial_number":56,"observed_reward":0,"unobserved_reward":0},{"RT":2272,"time": "2018-08-15 03:30:07pm", "schedule_type": "STATIC", "schedule_name": "random_1", "is_biased_choice":false,"side_choice": "RIGHT", "trial_number":57,"observed_reward":0,"unobserved_reward":0},{"RT":2228,"time": "2018-08-15 03:30:09pm", "schedule_type": "STATIC", "schedule_name": "random_1", "is_biased_choice":true,"side_choice": "LEFT", "trial_number":58,"observed_reward":0,"unobserved_reward":1},{"RT":2151,"time": "2018-08-15 03:30:11pm", "schedule_type": "STATIC", "schedule_name": "random_1", "is_biased_choice":false,"side_choice": "RIGHT", "trial_number":59,"observed_reward":0,"unobserved_reward":0},{"RT":2406,"time": "2018-08-15 03:30:14pm", "schedule_type": "STATIC", "schedule_name": "random_1", "is_biased_choice":true,"side_choice": "LEFT", "trial_number":60,"observed_reward":0,"unobserved_reward":0},{"RT":2192,"time": "2018-08-15 03:30:16pm", "schedule_type": "STATIC", "schedule_name": "random_1", "is_biased_choice":true,"side_choice": "LEFT", "trial_number":61,"observed_reward":0,"unobserved_reward":0},{"RT":2128,"time": "2018-08-15 03:30:18pm", "schedule_type": "STATIC", "schedule_name": "random_1", "is_biased_choice":true,"side_choice": "LEFT", "trial_number":62,"observed_reward":0,"unobserved_reward":0},{"RT":2479,"time": "2018-08-15 03:30:20pm", "schedule_type": "STATIC", "schedule_name": "random_1", "is_biased_choice":false,"side_choice": "RIGHT", "trial_number":63,"observed_reward":1,"unobserved_reward":0},{"RT":2617,"time": "2018-08-15 03:30:23pm", "schedule_type": "STATIC", "schedule_name": "random_1", "is_biased_choice":true,"side_choice": "LEFT", "trial_number":64,"observed_reward":1,"unobserved_reward":0},{"RT":2181,"time": "2018-08-15 03:30:25pm", "schedule_type": "STATIC", "schedule_name": "random_1", "is_biased_choice":true,"side_choice": "LEFT", "trial_number":65,"observed_reward":1,"unobserved_reward":0},{"RT":2178,"time": "2018-08-15 03:30:27pm", "schedule_type": "STATIC", "schedule_name": "random_1", "is_biased_choice":true,"side_choice": "LEFT", "trial_number":66,"observed_reward":0,"unobserved_reward":0},{"RT":2186,"time": "2018-08-15 03:30:30pm", "schedule_type": "STATIC", "schedule_name": "random_1", "is_biased_choice":false,"side_choice": "RIGHT", "trial_number":67,"observed_reward":1,"unobserved_reward":0},{"RT":2136,"time": "2018-08-15 03:30:32pm", "schedule_type": "STATIC", "schedule_name": "random_1", "is_biased_choice":false,"side_choice": "RIGHT", "trial_number":68,"observed_reward":1,"unobserved_reward":0},{"RT":2128,"time": "2018-08-15 03:30:34pm", "schedule_type": "STATIC", "schedule_name": "random_1", "is_biased_choice":false,"side_choice": "RIGHT", "trial_number":69,"observed_reward":0,"unobserved_reward":0},{"RT":2980,"time": "2018-08-15 03:30:37pm", "schedule_type": "STATIC", "schedule_name": "random_1", "is_biased_choice":false,"side_choice": "RIGHT", "trial_number":70,"observed_reward":0,"unobserved_reward":0},{"RT":2148,"time": "2018-08-15 03:30:39pm", "schedule_type": "STATIC", "schedule_name": "random_1", "is_biased_choice":false,"side_choice": "RIGHT", "trial_number":71,"observed_reward":0,"unobserved_reward":0},{"RT":2262,"time": "2018-08-15 03:30:41pm", "schedule_type": "STATIC", "schedule_name": "random_1", "is_biased_choice":true,"side_choice": "LEFT", "trial_number":72,"observed_reward":1,"unobserved_reward":0},{"RT":2682,"time": "2018-08-15 03:30:44pm", "schedule_type": "STATIC", "schedule_name": "random_1", "is_biased_choice":true,"side_choice": "LEFT", "trial_number":73,"observed_reward":0,"unobserved_reward":1},{"RT":2209,"time": "2018-08-15 03:30:46pm", "schedule_type": "STATIC", "schedule_name": "random_1", "is_biased_choice":true,"side_choice": "LEFT", "trial_number":74,"observed_reward":0,"unobserved_reward":1},{"RT":4343,"time": "2018-08-15 03:30:50pm", "schedule_type": "STATIC", "schedule_name": "random_1", "is_biased_choice":false,"side_choice": "RIGHT", "trial_number":75,"observed_reward":0,"unobserved_reward":0},{"RT":2496,"time": "2018-08-15 03:30:53pm", "schedule_type": "STATIC", "schedule_name": "random_1", "is_biased_choice":false,"side_choice": "RIGHT", "trial_number":76,"observed_reward":0,"unobserved_reward":1},{"RT":2200,"time": "2018-08-15 03:30:55pm", "schedule_type": "STATIC", "schedule_name": "random_1", "is_biased_choice":true,"side_choice": "LEFT", "trial_number":77,"observed_reward":0,"unobserved_reward":0},{"RT":2586,"time": "2018-08-15 03:30:58pm", "schedule_type": "STATIC", "schedule_name": "random_1", "is_biased_choice":false,"side_choice": "RIGHT", "trial_number":78,"observed_reward":0,"unobserved_reward":0},{"RT":2598,"time": "2018-08-15 03:31:00pm", "schedule_type": "STATIC", "schedule_name": "random_1", "is_biased_choice":false,"side_choice": "RIGHT", "trial_number":79,"observed_reward":0,"unobserved_reward":0},{"RT":2105,"time": "2018-08-15 03:31:02pm", "schedule_type": "STATIC", "schedule_name": "random_1", "is_biased_choice":false,"side_choice": "RIGHT", "trial_number":80,"observed_reward":1,"unobserved_reward":0},{"RT":2105,"time": "2018-08-15 03:31:05pm", "schedule_type": "STATIC", "schedule_name": "random_1", "is_biased_choice":false,"side_choice": "RIGHT", "trial_number":81,"observed_reward":1,"unobserved_reward":0},{"RT":2203,"time": "2018-08-15 03:31:07pm", "schedule_type": "STATIC", "schedule_name": "random_1", "is_biased_choice":false,"side_choice": "RIGHT", "trial_number":82,"observed_reward":1,"unobserved_reward":0},{"RT":2117,"time": "2018-08-15 03:31:09pm", "schedule_type": "STATIC", "schedule_name": "random_1", "is_biased_choice":false,"side_choice": "RIGHT", "trial_number":83,"observed_reward":1,"unobserved_reward":0},{"RT":2152,"time": "2018-08-15 03:31:11pm", "schedule_type": "STATIC", "schedule_name": "random_1", "is_biased_choice":false,"side_choice": "RIGHT", "trial_number":84,"observed_reward":0,"unobserved_reward":0},{"RT":2096,"time": "2018-08-15 03:31:13pm", "schedule_type": "STATIC", "schedule_name": "random_1", "is_biased_choice":false,"side_choice": "RIGHT", "trial_number":85,"observed_reward":0,"unobserved_reward":1},{"RT":2138,"time": "2018-08-15 03:31:15pm", "schedule_type": "STATIC", "schedule_name": "random_1", "is_biased_choice":false,"side_choice": "RIGHT", "trial_number":86,"observed_reward":0,"unobserved_reward":0},{"RT":2241,"time": "2018-08-15 03:31:17pm", "schedule_type": "STATIC", "schedule_name": "random_1", "is_biased_choice":false,"side_choice": "RIGHT", "trial_number":87,"observed_reward":0,"unobserved_reward":0},{"RT":2093,"time": "2018-08-15 03:31:20pm", "schedule_type": "STATIC", "schedule_name": "random_1", "is_biased_choice":false,"side_choice": "RIGHT", "trial_number":88,"observed_reward":0,"unobserved_reward":0},{"RT":2154,"time": "2018-08-15 03:31:22pm", "schedule_type": "STATIC", "schedule_name": "random_1", "is_biased_choice":true,"side_choice": "LEFT", "trial_number":89,"observed_reward":0,"unobserved_reward":0},{"RT":2509,"time": "2018-08-15 03:31:24pm", "schedule_type": "STATIC", "schedule_name": "random_1", "is_biased_choice":false,"side_choice": "RIGHT", "trial_number":90,"observed_reward":0,"unobserved_reward":0},{"RT":2170,"time": "2018-08-15 03:31:26pm", "schedule_type": "STATIC", "schedule_name": "random_1", "is_biased_choice":false,"side_choice": "RIGHT", "trial_number":91,"observed_reward":0,"unobserved_reward":0},{"RT":2467,"time": "2018-08-15 03:31:29pm", "schedule_type": "STATIC", "schedule_name": "random_1", "is_biased_choice":true,"side_choice": "LEFT", "trial_number":92,"observed_reward":1,"unobserved_reward":0},{"RT":2363,"time": "2018-08-15 03:31:31pm", "schedule_type": "STATIC", "schedule_name": "random_1", "is_biased_choice":true,"side_choice": "LEFT", "trial_number":93,"observed_reward":0,"unobserved_reward":0},{"RT":2301,"time": "2018-08-15 03:31:34pm", "schedule_type": "STATIC", "schedule_name": "random_1", "is_biased_choice":true,"side_choice": "LEFT", "trial_number":94,"observed_reward":0,"unobserved_reward":0},{"RT":2267,"time": "2018-08-15 03:31:36pm", "schedule_type": "STATIC", "schedule_name": "random_1", "is_biased_choice":false,"side_choice": "RIGHT", "trial_number":95,"observed_reward":0,"unobserved_reward":1},{"RT":2171,"time": "2018-08-15 03:31:38pm", "schedule_type": "STATIC", "schedule_name": "random_1", "is_biased_choice":true,"side_choice": "LEFT", "trial_number":96,"observed_reward":0,"unobserved_reward":0},{"RT":2239,"time": "2018-08-15 03:31:40pm", "schedule_type": "STATIC", "schedule_name": "random_1", "is_biased_choice":false,"side_choice": "RIGHT", "trial_number":97,"observed_reward":0,"unobserved_reward":0},{"RT":2128,"time": "2018-08-15 03:31:42pm", "schedule_type": "STATIC", "schedule_name": "random_1", "is_biased_choice":true,"side_choice": "LEFT", "trial_number":98,"observed_reward":0,"unobserved_reward":0},{"RT":2176,"time": "2018-08-15 03:31:45pm", "schedule_type": "STATIC", "schedule_name": "random_1", "is_biased_choice":false,"side_choice": "RIGHT", "trial_number":99,"observed_reward":0,"unobserved_reward":0},