trial_number, time, schedule_type, schedule_name, is_biased_choice, side_choice, RT, observed_reward, unobserved_reward, biased_reward, unbiased_reward
0,2019-09-15 12:04:39pm, STATIC, random_1, false, LEFT, 10369, 1, 0, 0, 1
1,2019-09-15 12:04:46pm, STATIC, random_1, false, LEFT, 7149, 0, 0, 0, 0
2,2019-09-15 12:04:51pm, STATIC, random_1, false, LEFT, 5254, 0, 0, 0, 0
3,2019-09-15 12:04:56pm, STATIC, random_1, true, RIGHT, 4695, 0, 1, 1, 0
4,2019-09-15 12:05:03pm, STATIC, random_1, false, LEFT, 6543, 1, 1, 1, 1
5,2019-09-15 12:05:07pm, STATIC, random_1, true, RIGHT, 4610, 0, 0, 0, 0
6,2019-09-15 12:05:11pm, STATIC, random_1, false, LEFT, 3561, 0, 0, 0, 0
7,2019-09-15 12:05:18pm, STATIC, random_1, true, RIGHT, 7279, 0, 1, 1, 0
8,2019-09-15 12:05:22pm, STATIC, random_1, false, LEFT, 3725, 0, 0, 0, 0
9,2019-09-15 12:05:26pm, STATIC, random_1, false, LEFT, 4093, 1, 0, 0, 1
10,2019-09-15 12:05:30pm, STATIC, random_1, false, LEFT, 4603, 0, 0, 0, 0
11,2019-09-15 12:05:35pm, STATIC, random_1, false, LEFT, 4059, 0, 0, 0, 0
12,2019-09-15 12:05:38pm, STATIC, random_1, false, LEFT, 3268, 0, 1, 1, 0
13,2019-09-15 12:05:41pm, STATIC, random_1, false, LEFT, 2917, 0, 1, 1, 0
14,2019-09-15 12:05:44pm, STATIC, random_1, false, LEFT, 3189, 0, 0, 0, 0
15,2019-09-15 12:05:47pm, STATIC, random_1, true, RIGHT, 3275, 0, 0, 0, 0
16,2019-09-15 12:05:51pm, STATIC, random_1, false, LEFT, 3595, 0, 0, 0, 0
17,2019-09-15 12:05:54pm, STATIC, random_1, false, LEFT, 3362, 1, 0, 0, 1
18,2019-09-15 12:05:58pm, STATIC, random_1, false, LEFT, 3363, 0, 0, 0, 0
19,2019-09-15 12:06:01pm, STATIC, random_1, false, LEFT, 3594, 0, 0, 0, 0
20,2019-09-15 12:06:04pm, STATIC, random_1, true, RIGHT, 3280, 0, 0, 0, 0
21,2019-09-15 12:06:07pm, STATIC, random_1, true, RIGHT, 3152, 0, 0, 0, 0
22,2019-09-15 12:06:10pm, STATIC, random_1, true, RIGHT, 3020, 1, 0, 0, 1
23,2019-09-15 12:06:15pm, STATIC, random_1, false, LEFT, 4279, 0, 0, 0, 0
24,2019-09-15 12:06:18pm, STATIC, random_1, true, RIGHT, 3404, 1, 0, 0, 1
25,2019-09-15 12:06:22pm, STATIC, random_1, true, RIGHT, 4142, 0, 0, 0, 0
26,2019-09-15 12:06:26pm, STATIC, random_1, false, LEFT, 3302, 0, 0, 0, 0
27,2019-09-15 12:06:28pm, STATIC, random_1, true, RIGHT, 2776, 1, 1, 1, 1
28,2019-09-15 12:06:32pm, STATIC, random_1, true, RIGHT, 3759, 1, 0, 0, 1
29,2019-09-15 12:06:36pm, STATIC, random_1, true, RIGHT, 3361, 0, 1, 1, 0
30,2019-09-15 12:06:38pm, STATIC, random_1, false, LEFT, 2880, 1, 0, 0, 1
31,2019-09-15 12:06:42pm, STATIC, random_1, false, LEFT, 3437, 1, 0, 0, 1
32,2019-09-15 12:06:45pm, STATIC, random_1, false, LEFT, 3330, 1, 1, 1, 1
33,2019-09-15 12:06:49pm, STATIC, random_1, false, LEFT, 3710, 0, 1, 1, 0
34,2019-09-15 12:06:52pm, STATIC, random_1, true, RIGHT, 3473, 0, 0, 0, 0
35,2019-09-15 12:06:58pm, STATIC, random_1, false, LEFT, 5559, 1, 1, 1, 1
36,2019-09-15 12:07:03pm, STATIC, random_1, false, LEFT, 4633, 0, 1, 1, 0
37,2019-09-15 12:07:05pm, STATIC, random_1, true, RIGHT, 2855, 0, 0, 0, 0
38,2019-09-15 12:07:08pm, STATIC, random_1, false, LEFT, 2896, 0, 1, 1, 0
39,2019-09-15 12:07:11pm, STATIC, random_1, true, RIGHT, 2897, 0, 0, 0, 0
40,2019-09-15 12:07:15pm, STATIC, random_1, true, RIGHT, 3367, 1, 1, 1, 1
41,2019-09-15 12:07:18pm, STATIC, random_1, false, LEFT, 3413, 0, 1, 1, 0
42,2019-09-15 12:07:21pm, STATIC, random_1, true, RIGHT, 3189, 0, 0, 0, 0
43,2019-09-15 12:07:24pm, STATIC, random_1, true, RIGHT, 2967, 0, 0, 0, 0
44,2019-09-15 12:07:27pm, STATIC, random_1, true, RIGHT, 2789, 0, 0, 0, 0
45,2019-09-15 12:07:29pm, STATIC, random_1, false, LEFT, 2661, 0, 0, 0, 0
46,2019-09-15 12:07:32pm, STATIC, random_1, false, LEFT, 2937, 0, 1, 1, 0
47,2019-09-15 12:07:36pm, STATIC, random_1, true, RIGHT, 3120, 1, 1, 1, 1
48,2019-09-15 12:07:39pm, STATIC, random_1, false, LEFT, 3337, 0, 0, 0, 0
49,2019-09-15 12:07:42pm, STATIC, random_1, true, RIGHT, 2748, 0, 1, 1, 0
50,2019-09-15 12:07:44pm, STATIC, random_1, false, LEFT, 2736, 0, 0, 0, 0
51,2019-09-15 12:07:48pm, STATIC, random_1, true, RIGHT, 3651, 0, 1, 1, 0
52,2019-09-15 12:07:51pm, STATIC, random_1, false, LEFT, 2893, 0, 0, 0, 0
53,2019-09-15 12:07:54pm, STATIC, random_1, true, RIGHT, 2706, 0, 0, 0, 0
54,2019-09-15 12:07:57pm, STATIC, random_1, false, LEFT, 3202, 0, 0, 0, 0
55,2019-09-15 12:08:00pm, STATIC, random_1, true, RIGHT, 3251, 1, 0, 0, 1
56,2019-09-15 12:08:04pm, STATIC, random_1, true, RIGHT, 3684, 0, 0, 0, 0
57,2019-09-15 12:08:07pm, STATIC, random_1, false, LEFT, 2897, 0, 0, 0, 0
58,2019-09-15 12:08:10pm, STATIC, random_1, true, RIGHT, 2867, 1, 0, 0, 1
59,2019-09-15 12:08:13pm, STATIC, random_1, false, LEFT, 2988, 0, 0, 0, 0
60,2019-09-15 12:08:15pm, STATIC, random_1, true, RIGHT, 2772, 0, 0, 0, 0
61,2019-09-15 12:08:18pm, STATIC, random_1, false, LEFT, 2777, 0, 0, 0, 0
62,2019-09-15 12:08:21pm, STATIC, random_1, true, RIGHT, 2860, 0, 0, 0, 0
63,2019-09-15 12:08:24pm, STATIC, random_1, false, LEFT, 2714, 1, 0, 0, 1
64,2019-09-15 12:08:27pm, STATIC, random_1, true, RIGHT, 2893, 0, 1, 1, 0
65,2019-09-15 12:08:29pm, STATIC, random_1, false, LEFT, 2727, 0, 1, 1, 0
66,2019-09-15 12:08:32pm, STATIC, random_1, true, RIGHT, 2641, 0, 0, 0, 0
67,2019-09-15 12:08:35pm, STATIC, random_1, false, LEFT, 3247, 1, 0, 0, 1
68,2019-09-15 12:08:39pm, STATIC, random_1, true, RIGHT, 3226, 1, 0, 0, 1
69,2019-09-15 12:08:41pm, STATIC, random_1, false, LEFT, 3057, 0, 0, 0, 0
70,2019-09-15 12:08:44pm, STATIC, random_1, true, RIGHT, 2983, 0, 0, 0, 0
71,2019-09-15 12:08:47pm, STATIC, random_1, false, LEFT, 2814, 0, 0, 0, 0
72,2019-09-15 12:08:50pm, STATIC, random_1, true, RIGHT, 2859, 0, 1, 1, 0
73,2019-09-15 12:08:53pm, STATIC, random_1, false, LEFT, 2967, 1, 0, 0, 1
74,2019-09-15 12:08:56pm, STATIC, random_1, true, RIGHT, 3069, 1, 0, 0, 1
75,2019-09-15 12:08:59pm, STATIC, random_1, true, RIGHT, 3259, 0, 0, 0, 0
76,2019-09-15 12:09:05pm, STATIC, random_1, false, LEFT, 5282, 0, 1, 1, 0
77,2019-09-15 12:09:09pm, STATIC, random_1, true, RIGHT, 4679, 0, 0, 0, 0
78,2019-09-15 12:09:13pm, STATIC, random_1, false, LEFT, 3412, 0, 0, 0, 0
79,2019-09-15 12:09:16pm, STATIC, random_1, true, RIGHT, 2999, 0, 0, 0, 0
80,2019-09-15 12:09:19pm, STATIC, random_1, false, LEFT, 2885, 1, 0, 0, 1
81,2019-09-15 12:09:21pm, STATIC, random_1, false, LEFT, 2632, 1, 0, 0, 1
82,2019-09-15 12:09:24pm, STATIC, random_1, false, LEFT, 2884, 1, 0, 0, 1
83,2019-09-15 12:09:27pm, STATIC, random_1, false, LEFT, 2855, 1, 0, 0, 1
84,2019-09-15 12:09:30pm, STATIC, random_1, false, LEFT, 2959, 0, 0, 0, 0
85,2019-09-15 12:09:33pm, STATIC, random_1, true, RIGHT, 2909, 0, 1, 1, 0
86,2019-09-15 12:09:36pm, STATIC, random_1, false, LEFT, 3300, 0, 0, 0, 0
87,2019-09-15 12:09:39pm, STATIC, random_1, true, RIGHT, 2802, 0, 0, 0, 0
88,2019-09-15 12:09:42pm, STATIC, random_1, false, LEFT, 3181, 0, 0, 0, 0
89,2019-09-15 12:09:45pm, STATIC, random_1, false, LEFT, 3110, 0, 0, 0, 0
90,2019-09-15 12:09:48pm, STATIC, random_1, true, RIGHT, 2513, 0, 0, 0, 0
91,2019-09-15 12:09:51pm, STATIC, random_1, false, LEFT, 2856, 0, 0, 0, 0
92,2019-09-15 12:09:54pm, STATIC, random_1, true, RIGHT, 3218, 0, 1, 1, 0
93,2019-09-15 12:09:57pm, STATIC, random_1, false, LEFT, 3359, 0, 0, 0, 0
94,2019-09-15 12:10:01pm, STATIC, random_1, false, LEFT, 3900, 0, 0, 0, 0
95,2019-09-15 12:10:04pm, STATIC, random_1, true, RIGHT, 2801, 0, 1, 1, 0
96,2019-09-15 12:10:07pm, STATIC, random_1, false, LEFT, 3087, 0, 0, 0, 0
97,2019-09-15 12:10:11pm, STATIC, random_1, true, RIGHT, 3486, 0, 0, 0, 0
98,2019-09-15 12:10:14pm, STATIC, random_1, false, LEFT, 3793, 0, 0, 0, 0
99,2019-09-15 12:10:17pm, STATIC, random_1, true, RIGHT, 2946, 0, 0, 0, 0
