[{"RT":2301,"time": "2018-08-15 03:35:11pm", "schedule_type": "STATIC", "schedule_name": "random_7", "is_biased_choice":true,"side_choice": "LEFT", "trial_number":0,"observed_reward":1,"unobserved_reward":0},{"RT":2752,"time": "2018-08-15 03:35:13pm", "schedule_type": "STATIC", "schedule_name": "random_7", "is_biased_choice":true,"side_choice": "LEFT", "trial_number":1,"observed_reward":0,"unobserved_reward":0},{"RT":2336,"time": "2018-08-15 03:35:16pm", "schedule_type": "STATIC", "schedule_name": "random_7", "is_biased_choice":false,"side_choice": "RIGHT", "trial_number":2,"observed_reward":0,"unobserved_reward":1},{"RT":2440,"time": "2018-08-15 03:35:18pm", "schedule_type": "STATIC", "schedule_name": "random_7", "is_biased_choice":true,"side_choice": "LEFT", "trial_number":3,"observed_reward":0,"unobserved_reward":0},{"RT":2217,"time": "2018-08-15 03:35:20pm", "schedule_type": "STATIC", "schedule_name": "random_7", "is_biased_choice":false,"side_choice": "RIGHT", "trial_number":4,"observed_reward":0,"unobserved_reward":1},{"RT":3031,"time": "2018-08-15 03:35:23pm", "schedule_type": "STATIC", "schedule_name": "random_7", "is_biased_choice":true,"side_choice": "LEFT", "trial_number":5,"observed_reward":0,"unobserved_reward":0},{"RT":2247,"time": "2018-08-15 03:35:26pm", "schedule_type": "STATIC", "schedule_name": "random_7", "is_biased_choice":true,"side_choice": "LEFT", "trial_number":6,"observed_reward":0,"unobserved_reward":0},{"RT":2233,"time": "2018-08-15 03:35:28pm", "schedule_type": "STATIC", "schedule_name": "random_7", "is_biased_choice":false,"side_choice": "RIGHT", "trial_number":7,"observed_reward":0,"unobserved_reward":1},{"RT":2720,"time": "2018-08-15 03:35:31pm", "schedule_type": "STATIC", "schedule_name": "random_7", "is_biased_choice":false,"side_choice": "RIGHT", "trial_number":8,"observed_reward":1,"unobserved_reward":0},{"RT":2287,"time": "2018-08-15 03:35:33pm", "schedule_type": "STATIC", "schedule_name": "random_7", "is_biased_choice":false,"side_choice": "RIGHT", "trial_number":9,"observed_reward":0,"unobserved_reward":1},{"RT":2241,"time": "2018-08-15 03:35:35pm", "schedule_type": "STATIC", "schedule_name": "random_7", "is_biased_choice":true,"side_choice": "LEFT", "trial_number":10,"observed_reward":0,"unobserved_reward":0},{"RT":2151,"time": "2018-08-15 03:35:37pm", "schedule_type": "STATIC", "schedule_name": "random_7", "is_biased_choice":false,"side_choice": "RIGHT", "trial_number":11,"observed_reward":0,"unobserved_reward":0},{"RT":2201,"time": "2018-08-15 03:35:39pm", "schedule_type": "STATIC", "schedule_name": "random_7", "is_biased_choice":true,"side_choice": "LEFT", "trial_number":12,"observed_reward":0,"unobserved_reward":0},{"RT":2319,"time": "2018-08-15 03:35:42pm", "schedule_type": "STATIC", "schedule_name": "random_7", "is_biased_choice":true,"side_choice": "LEFT", "trial_number":13,"observed_reward":0,"unobserved_reward":0},{"RT":2144,"time": "2018-08-15 03:35:44pm", "schedule_type": "STATIC", "schedule_name": "random_7", "is_biased_choice":true,"side_choice": "LEFT", "trial_number":14,"observed_reward":0,"unobserved_reward":1},{"RT":2152,"time": "2018-08-15 03:35:46pm", "schedule_type": "STATIC", "schedule_name": "random_7", "is_biased_choice":true,"side_choice": "LEFT", "trial_number":15,"observed_reward":1,"unobserved_reward":0},{"RT":2176,"time": "2018-08-15 03:35:48pm", "schedule_type": "STATIC", "schedule_name": "random_7", "is_biased_choice":true,"side_choice": "LEFT", "trial_number":16,"observed_reward":1,"unobserved_reward":1},{"RT":2129,"time": "2018-08-15 03:35:50pm", "schedule_type": "STATIC", "schedule_name": "random_7", "is_biased_choice":true,"side_choice": "LEFT", "trial_number":17,"observed_reward":0,"unobserved_reward":1},{"RT":2176,"time": "2018-08-15 03:35:53pm", "schedule_type": "STATIC", "schedule_name": "random_7", "is_biased_choice":true,"side_choice": "LEFT", "trial_number":18,"observed_reward":0,"unobserved_reward":0},{"RT":2183,"time": "2018-08-15 03:35:55pm", "schedule_type": "STATIC", "schedule_name": "random_7", "is_biased_choice":true,"side_choice": "LEFT", "trial_number":19,"observed_reward":0,"unobserved_reward":0},{"RT":2193,"time": "2018-08-15 03:35:57pm", "schedule_type": "STATIC", "schedule_name": "random_7", "is_biased_choice":true,"side_choice": "LEFT", "trial_number":20,"observed_reward":1,"unobserved_reward":1},{"RT":2175,"time": "2018-08-15 03:35:59pm", "schedule_type": "STATIC", "schedule_name": "random_7", "is_biased_choice":true,"side_choice": "LEFT", "trial_number":21,"observed_reward":1,"unobserved_reward":0},{"RT":2232,"time": "2018-08-15 03:36:01pm", "schedule_type": "STATIC", "schedule_name": "random_7", "is_biased_choice":true,"side_choice": "LEFT", "trial_number":22,"observed_reward":0,"unobserved_reward":0},{"RT":2168,"time": "2018-08-15 03:36:03pm", "schedule_type": "STATIC", "schedule_name": "random_7", "is_biased_choice":true,"side_choice": "LEFT", "trial_number":23,"observed_reward":1,"unobserved_reward":0},{"RT":2152,"time": "2018-08-15 03:36:06pm", "schedule_type": "STATIC", "schedule_name": "random_7", "is_biased_choice":true,"side_choice": "LEFT", "trial_number":24,"observed_reward":0,"unobserved_reward":0},{"RT":2448,"time": "2018-08-15 03:36:08pm", "schedule_type": "STATIC", "schedule_name": "random_7", "is_biased_choice":true,"side_choice": "LEFT", "trial_number":25,"observed_reward":1,"unobserved_reward":0},{"RT":2120,"time": "2018-08-15 03:36:10pm", "schedule_type": "STATIC", "schedule_name": "random_7", "is_biased_choice":true,"side_choice": "LEFT", "trial_number":26,"observed_reward":0,"unobserved_reward":0},{"RT":3266,"time": "2018-08-15 03:36:14pm", "schedule_type": "STATIC", "schedule_name": "random_7", "is_biased_choice":true,"side_choice": "LEFT", "trial_number":27,"observed_reward":0,"unobserved_reward":0},{"RT":2208,"time": "2018-08-15 03:36:16pm", "schedule_type": "STATIC", "schedule_name": "random_7", "is_biased_choice":true,"side_choice": "LEFT", "trial_number":28,"observed_reward":1,"unobserved_reward":1},{"RT":2174,"time": "2018-08-15 03:36:18pm", "schedule_type": "STATIC", "schedule_name": "random_7", "is_biased_choice":true,"side_choice": "LEFT", "trial_number":29,"observed_reward":0,"unobserved_reward":0},{"RT":2328,"time": "2018-08-15 03:36:20pm", "schedule_type": "STATIC", "schedule_name": "random_7", "is_biased_choice":true,"side_choice": "LEFT", "trial_number":30,"observed_reward":1,"unobserved_reward":0},{"RT":2176,"time": "2018-08-15 03:36:22pm", "schedule_type": "STATIC", "schedule_name": "random_7", "is_biased_choice":true,"side_choice": "LEFT", "trial_number":31,"observed_reward":0,"unobserved_reward":0},{"RT":2136,"time": "2018-08-15 03:36:24pm", "schedule_type": "STATIC", "schedule_name": "random_7", "is_biased_choice":true,"side_choice": "LEFT", "trial_number":32,"observed_reward":1,"unobserved_reward":0},{"RT":2160,"time": "2018-08-15 03:36:27pm", "schedule_type": "STATIC", "schedule_name": "random_7", "is_biased_choice":true,"side_choice": "LEFT", "trial_number":33,"observed_reward":0,"unobserved_reward":0},{"RT":2128,"time": "2018-08-15 03:36:29pm", "schedule_type": "STATIC", "schedule_name": "random_7", "is_biased_choice":true,"side_choice": "LEFT", "trial_number":34,"observed_reward":0,"unobserved_reward":0},{"RT":2119,"time": "2018-08-15 03:36:31pm", "schedule_type": "STATIC", "schedule_name": "random_7", "is_biased_choice":true,"side_choice": "LEFT", "trial_number":35,"observed_reward":0,"unobserved_reward":0},{"RT":2081,"time": "2018-08-15 03:36:33pm", "schedule_type": "STATIC", "schedule_name": "random_7", "is_biased_choice":true,"side_choice": "LEFT", "trial_number":36,"observed_reward":0,"unobserved_reward":0},{"RT":2168,"time": "2018-08-15 03:36:35pm", "schedule_type": "STATIC", "schedule_name": "random_7", "is_biased_choice":true,"side_choice": "LEFT", "trial_number":37,"observed_reward":1,"unobserved_reward":0},{"RT":2135,"time": "2018-08-15 03:36:37pm", "schedule_type": "STATIC", "schedule_name": "random_7", "is_biased_choice":true,"side_choice": "LEFT", "trial_number":38,"observed_reward":1,"unobserved_reward":0},{"RT":2097,"time": "2018-08-15 03:36:39pm", "schedule_type": "STATIC", "schedule_name": "random_7", "is_biased_choice":true,"side_choice": "LEFT", "trial_number":39,"observed_reward":1,"unobserved_reward":0},{"RT":2104,"time": "2018-08-15 03:36:41pm", "schedule_type": "STATIC", "schedule_name": "random_7", "is_biased_choice":true,"side_choice": "LEFT", "trial_number":40,"observed_reward":0,"unobserved_reward":0},{"RT":2424,"time": "2018-08-15 03:36:44pm", "schedule_type": "STATIC", "schedule_name": "random_7", "is_biased_choice":true,"side_choice": "LEFT", "trial_number":41,"observed_reward":0,"unobserved_reward":1},{"RT":2160,"time": "2018-08-15 03:36:46pm", "schedule_type": "STATIC", "schedule_name": "random_7", "is_biased_choice":true,"side_choice": "LEFT", "trial_number":42,"observed_reward":0,"unobserved_reward":0},{"RT":2791,"time": "2018-08-15 03:36:49pm", "schedule_type": "STATIC", "schedule_name": "random_7", "is_biased_choice":true,"side_choice": "LEFT", "trial_number":43,"observed_reward":0,"unobserved_reward":1},{"RT":2209,"time": "2018-08-15 03:36:51pm", "schedule_type": "STATIC", "schedule_name": "random_7", "is_biased_choice":true,"side_choice": "LEFT", "trial_number":44,"observed_reward":0,"unobserved_reward":0},{"RT":2687,"time": "2018-08-15 03:36:54pm", "schedule_type": "STATIC", "schedule_name": "random_7", "is_biased_choice":true,"side_choice": "LEFT", "trial_number":45,"observed_reward":0,"unobserved_reward":0},{"RT":2193,"time": "2018-08-15 03:36:56pm", "schedule_type": "STATIC", "schedule_name": "random_7", "is_biased_choice":true,"side_choice": "LEFT", "trial_number":46,"observed_reward":0,"unobserved_reward":1},{"RT":3119,"time": "2018-08-15 03:36:59pm", "schedule_type": "STATIC", "schedule_name": "random_7", "is_biased_choice":true,"side_choice": "LEFT", "trial_number":47,"observed_reward":0,"unobserved_reward":0},{"RT":2296,"time": "2018-08-15 03:37:01pm", "schedule_type": "STATIC", "schedule_name": "random_7", "is_biased_choice":true,"side_choice": "LEFT", "trial_number":48,"observed_reward":0,"unobserved_reward":1},{"RT":2601,"time": "2018-08-15 03:37:04pm", "schedule_type": "STATIC", "schedule_name": "random_7", "is_biased_choice":true,"side_choice": "LEFT", "trial_number":49,"observed_reward":0,"unobserved_reward":0},{"RT":2175,"time": "2018-08-15 03:37:06pm", "schedule_type": "STATIC", "schedule_name": "random_7", "is_biased_choice":true,"side_choice": "LEFT", "trial_number":50,"observed_reward":0,"unobserved_reward":1},{"RT":3625,"time": "2018-08-15 03:37:10pm", "schedule_type": "STATIC", "schedule_name": "random_7", "is_biased_choice":true,"side_choice": "LEFT", "trial_number":51,"observed_reward":0,"unobserved_reward":0},{"RT":2199,"time": "2018-08-15 03:37:12pm", "schedule_type": "STATIC", "schedule_name": "random_7", "is_biased_choice":true,"side_choice": "LEFT", "trial_number":52,"observed_reward":1,"unobserved_reward":0},{"RT":2120,"time": "2018-08-15 03:37:14pm", "schedule_type": "STATIC", "schedule_name": "random_7", "is_biased_choice":true,"side_choice": "LEFT", "trial_number":53,"observed_reward":0,"unobserved_reward":1},{"RT":2112,"time": "2018-08-15 03:37:16pm", "schedule_type": "STATIC", "schedule_name": "random_7", "is_biased_choice":true,"side_choice": "LEFT", "trial_number":54,"observed_reward":0,"unobserved_reward":0},{"RT":2175,"time": "2018-08-15 03:37:18pm", "schedule_type": "STATIC", "schedule_name": "random_7", "is_biased_choice":true,"side_choice": "LEFT", "trial_number":55,"observed_reward":0,"unobserved_reward":0},{"RT":2169,"time": "2018-08-15 03:37:21pm", "schedule_type": "STATIC", "schedule_name": "random_7", "is_biased_choice":true,"side_choice": "LEFT", "trial_number":56,"observed_reward":0,"unobserved_reward":0},{"RT":2184,"time": "2018-08-15 03:37:23pm", "schedule_type": "STATIC", "schedule_name": "random_7", "is_biased_choice":true,"side_choice": "LEFT", "trial_number":57,"observed_reward":1,"unobserved_reward":0},{"RT":2208,"time": "2018-08-15 03:37:25pm", "schedule_type": "STATIC", "schedule_name": "random_7", "is_biased_choice":true,"side_choice": "LEFT", "trial_number":58,"observed_reward":0,"unobserved_reward":0},{"RT":2160,"time": "2018-08-15 03:37:27pm", "schedule_type": "STATIC", "schedule_name": "random_7", "is_biased_choice":true,"side_choice": "LEFT", "trial_number":59,"observed_reward":0,"unobserved_reward":1},{"RT":2136,"time": "2018-08-15 03:37:29pm", "schedule_type": "STATIC", "schedule_name": "random_7", "is_biased_choice":true,"side_choice": "LEFT", "trial_number":60,"observed_reward":1,"unobserved_reward":0},{"RT":2359,"time": "2018-08-15 03:37:32pm", "schedule_type": "STATIC", "schedule_name": "random_7", "is_biased_choice":true,"side_choice": "LEFT", "trial_number":61,"observed_reward":0,"unobserved_reward":0},{"RT":2120,"time": "2018-08-15 03:37:34pm", "schedule_type": "STATIC", "schedule_name": "random_7", "is_biased_choice":true,"side_choice": "LEFT", "trial_number":62,"observed_reward":0,"unobserved_reward":0},{"RT":2257,"time": "2018-08-15 03:37:36pm", "schedule_type": "STATIC", "schedule_name": "random_7", "is_biased_choice":true,"side_choice": "LEFT", "trial_number":63,"observed_reward":0,"unobserved_reward":0},{"RT":2208,"time": "2018-08-15 03:37:38pm", "schedule_type": "STATIC", "schedule_name": "random_7", "is_biased_choice":true,"side_choice": "LEFT", "trial_number":64,"observed_reward":0,"unobserved_reward":1},{"RT":2624,"time": "2018-08-15 03:37:41pm", "schedule_type": "STATIC", "schedule_name": "random_7", "is_biased_choice":true,"side_choice": "LEFT", "trial_number":65,"observed_reward":0,"unobserved_reward":1},{"RT":2423,"time": "2018-08-15 03:37:43pm", "schedule_type": "STATIC", "schedule_name": "random_7", "is_biased_choice":true,"side_choice": "LEFT", "trial_number":66,"observed_reward":0,"unobserved_reward":0},{"RT":2289,"time": "2018-08-15 03:37:46pm", "schedule_type": "STATIC", "schedule_name": "random_7", "is_biased_choice":true,"side_choice": "LEFT", "trial_number":67,"observed_reward":0,"unobserved_reward":1},{"RT":2215,"time": "2018-08-15 03:37:48pm", "schedule_type": "STATIC", "schedule_name": "random_7", "is_biased_choice":true,"side_choice": "LEFT", "trial_number":68,"observed_reward":1,"unobserved_reward":1},{"RT":2161,"time": "2018-08-15 03:37:50pm", "schedule_type": "STATIC", "schedule_name": "random_7", "is_biased_choice":true,"side_choice": "LEFT", "trial_number":69,"observed_reward":0,"unobserved_reward":1},{"RT":2215,"time": "2018-08-15 03:37:52pm", "schedule_type": "STATIC", "schedule_name": "random_7", "is_biased_choice":true,"side_choice": "LEFT", "trial_number":70,"observed_reward":0,"unobserved_reward":0},{"RT":2096,"time": "2018-08-15 03:37:54pm", "schedule_type": "STATIC", "schedule_name": "random_7", "is_biased_choice":true,"side_choice": "LEFT", "trial_number":71,"observed_reward":0,"unobserved_reward":1},{"RT":2168,"time": "2018-08-15 03:37:56pm", "schedule_type": "STATIC", "schedule_name": "random_7", "is_biased_choice":true,"side_choice": "LEFT", "trial_number":72,"observed_reward":0,"unobserved_reward":0},{"RT":2240,"time": "2018-08-15 03:37:59pm", "schedule_type": "STATIC", "schedule_name": "random_7", "is_biased_choice":true,"side_choice": "LEFT", "trial_number":73,"observed_reward":0,"unobserved_reward":0},{"RT":2152,"time": "2018-08-15 03:38:01pm", "schedule_type": "STATIC", "schedule_name": "random_7", "is_biased_choice":true,"side_choice": "LEFT", "trial_number":74,"observed_reward":0,"unobserved_reward":0},{"RT":2289,"time": "2018-08-15 03:38:03pm", "schedule_type": "STATIC", "schedule_name": "random_7", "is_biased_choice":true,"side_choice": "LEFT", "trial_number":75,"observed_reward":0,"unobserved_reward":1},{"RT":2159,"time": "2018-08-15 03:38:05pm", "schedule_type": "STATIC", "schedule_name": "random_7", "is_biased_choice":true,"side_choice": "LEFT", "trial_number":76,"observed_reward":0,"unobserved_reward":0},{"RT":2152,"time": "2018-08-15 03:38:07pm", "schedule_type": "STATIC", "schedule_name": "random_7", "is_biased_choice":true,"side_choice": "LEFT", "trial_number":77,"observed_reward":0,"unobserved_reward":0},{"RT":2096,"time": "2018-08-15 03:38:09pm", "schedule_type": "STATIC", "schedule_name": "random_7", "is_biased_choice":true,"side_choice": "LEFT", "trial_number":78,"observed_reward":0,"unobserved_reward":1},{"RT":2120,"time": "2018-08-15 03:38:12pm", "schedule_type": "STATIC", "schedule_name": "random_7", "is_biased_choice":true,"side_choice": "LEFT", "trial_number":79,"observed_reward":0,"unobserved_reward":0},{"RT":2128,"time": "2018-08-15 03:38:14pm", "schedule_type": "STATIC", "schedule_name": "random_7", "is_biased_choice":true,"side_choice": "LEFT", "trial_number":80,"observed_reward":0,"unobserved_reward":0},{"RT":2160,"time": "2018-08-15 03:38:16pm", "schedule_type": "STATIC", "schedule_name": "random_7", "is_biased_choice":true,"side_choice": "LEFT", "trial_number":81,"observed_reward":0,"unobserved_reward":1},{"RT":2168,"time": "2018-08-15 03:38:18pm", "schedule_type": "STATIC", "schedule_name": "random_7", "is_biased_choice":true,"side_choice": "LEFT", "trial_number":82,"observed_reward":0,"unobserved_reward":0},{"RT":2176,"time": "2018-08-15 03:38:20pm", "schedule_type": "STATIC", "schedule_name": "random_7", "is_biased_choice":true,"side_choice": "LEFT", "trial_number":83,"observed_reward":0,"unobserved_reward":0},{"RT":2160,"time": "2018-08-15 03:38:22pm", "schedule_type": "STATIC", "schedule_name": "random_7", "is_biased_choice":true,"side_choice": "LEFT", "trial_number":84,"observed_reward":1,"unobserved_reward":0},{"RT":2120,"time": "2018-08-15 03:38:24pm", "schedule_type": "STATIC", "schedule_name": "random_7", "is_biased_choice":true,"side_choice": "LEFT", "trial_number":85,"observed_reward":0,"unobserved_reward":1},{"RT":2071,"time": "2018-08-15 03:38:27pm", "schedule_type": "STATIC", "schedule_name": "random_7", "is_biased_choice":true,"side_choice": "LEFT", "trial_number":86,"observed_reward":0,"unobserved_reward":0},{"RT":2121,"time": "2018-08-15 03:38:29pm", "schedule_type": "STATIC", "schedule_name": "random_7", "is_biased_choice":true,"side_choice": "LEFT", "trial_number":87,"observed_reward":0,"unobserved_reward":0},{"RT":2135,"time": "2018-08-15 03:38:31pm", "schedule_type": "STATIC", "schedule_name": "random_7", "is_biased_choice":true,"side_choice": "LEFT", "trial_number":88,"observed_reward":0,"unobserved_reward":0},{"RT":2097,"time": "2018-08-15 03:38:33pm", "schedule_type": "STATIC", "schedule_name": "random_7", "is_biased_choice":true,"side_choice": "LEFT", "trial_number":89,"observed_reward":0,"unobserved_reward":1},{"RT":2136,"time": "2018-08-15 03:38:35pm", "schedule_type": "STATIC", "schedule_name": "random_7", "is_biased_choice":true,"side_choice": "LEFT", "trial_number":90,"observed_reward":0,"unobserved_reward":0},{"RT":2080,"time": "2018-08-15 03:38:37pm", "schedule_type": "STATIC", "schedule_name": "random_7", "is_biased_choice":true,"side_choice": "LEFT", "trial_number":91,"observed_reward":0,"unobserved_reward":0},{"RT":2168,"time": "2018-08-15 03:38:39pm", "schedule_type": "STATIC", "schedule_name": "random_7", "is_biased_choice":true,"side_choice": "LEFT", "trial_number":92,"observed_reward":0,"unobserved_reward":1},{"RT":2152,"time": "2018-08-15 03:38:41pm", "schedule_type": "STATIC", "schedule_name": "random_7", "is_biased_choice":true,"side_choice": "LEFT", "trial_number":93,"observed_reward":1,"unobserved_reward":0},{"RT":2048,"time": "2018-08-15 03:38:43pm", "schedule_type": "STATIC", "schedule_name": "random_7", "is_biased_choice":true,"side_choice": "LEFT", "trial_number":94,"observed_reward":0,"unobserved_reward":0},{"RT":2111,"time": "2018-08-15 03:38:46pm", "schedule_type": "STATIC", "schedule_name": "random_7", "is_biased_choice":true,"side_choice": "LEFT", "trial_number":95,"observed_reward":1,"unobserved_reward":0},{"RT":2217,"time": "2018-08-15 03:38:48pm", "schedule_type": "STATIC", "schedule_name": "random_7", "is_biased_choice":true,"side_choice": "LEFT", "trial_number":96,"observed_reward":0,"unobserved_reward":0},{"RT":2176,"time": "2018-08-15 03:38:50pm", "schedule_type": "STATIC", "schedule_name": "random_7", "is_biased_choice":true,"side_choice": "LEFT", "trial_number":97,"observed_reward":1,"unobserved_reward":0},{"RT":2248,"time": "2018-08-15 03:38:52pm", "schedule_type": "STATIC", "schedule_name": "random_7", "is_biased_choice":true,"side_choice": "LEFT", "trial_number":98,"observed_reward":0,"unobserved_reward":0},{"RT":2208,"time": "2018-08-15 03:38:54pm", "schedule_type": "STATIC", "schedule_name": "random_7", "is_biased_choice":true,"side_choice": "LEFT", "trial_number":99,"observed_reward":0,"unobserved_reward":0},