trial_number, time, schedule_type, schedule_name, is_biased_choice, side_choice, RT, observed_reward, unobserved_reward, biased_reward, unbiased_reward
0,2018-08-15 05:28:18pm, STATIC, random_7, false, LEFT, 4595, 0, 1, 1, 0
1,2018-08-15 05:28:21pm, STATIC, random_7, true, RIGHT, 3165, 0, 0, 0, 0
2,2018-08-15 05:28:23pm, STATIC, random_7, true, RIGHT, 2801, 1, 0, 1, 0
3,2018-08-15 05:28:26pm, STATIC, random_7, false, LEFT, 2703, 0, 0, 0, 0
4,2018-08-15 05:28:29pm, STATIC, random_7, false, LEFT, 2584, 0, 1, 1, 0
5,2018-08-15 05:28:38pm, STATIC, random_7, true, RIGHT, 9448, 0, 0, 0, 0
6,2018-08-15 05:28:41pm, STATIC, random_7, true, RIGHT, 2552, 0, 0, 0, 0
7,2018-08-15 05:28:43pm, STATIC, random_7, true, RIGHT, 2745, 1, 0, 1, 0
8,2018-08-15 05:28:46pm, STATIC, random_7, true, RIGHT, 2623, 0, 1, 0, 1
9,2018-08-15 05:28:48pm, STATIC, random_7, false, LEFT, 2401, 0, 1, 1, 0
10,2018-08-15 05:28:51pm, STATIC, random_7, false, LEFT, 2488, 0, 0, 0, 0
11,2018-08-15 05:28:53pm, STATIC, random_7, true, RIGHT, 2295, 0, 0, 0, 0
12,2018-08-15 05:28:56pm, STATIC, random_7, true, RIGHT, 2376, 0, 0, 0, 0
13,2018-08-15 05:28:58pm, STATIC, random_7, true, RIGHT, 2569, 0, 0, 0, 0
14,2018-08-15 05:29:01pm, STATIC, random_7, true, RIGHT, 2687, 0, 1, 0, 1
15,2018-08-15 05:29:03pm, STATIC, random_7, false, LEFT, 2592, 0, 1, 1, 0
16,2018-08-15 05:29:06pm, STATIC, random_7, false, LEFT, 2425, 1, 1, 1, 1
17,2018-08-15 05:29:08pm, STATIC, random_7, false, LEFT, 2303, 1, 0, 0, 1
18,2018-08-15 05:29:11pm, STATIC, random_7, false, LEFT, 2272, 0, 0, 0, 0
19,2018-08-15 05:29:13pm, STATIC, random_7, true, RIGHT, 2416, 0, 0, 0, 0
20,2018-08-15 05:29:15pm, STATIC, random_7, false, LEFT, 2232, 1, 1, 1, 1
21,2018-08-15 05:29:17pm, STATIC, random_7, false, LEFT, 2297, 0, 1, 1, 0
22,2018-08-15 05:29:20pm, STATIC, random_7, true, RIGHT, 2591, 0, 0, 0, 0
23,2018-08-15 05:29:23pm, STATIC, random_7, false, LEFT, 2648, 0, 1, 1, 0
24,2018-08-15 05:29:25pm, STATIC, random_7, false, LEFT, 2408, 0, 0, 0, 0
25,2018-08-15 05:29:28pm, STATIC, random_7, true, RIGHT, 2432, 1, 0, 1, 0
26,2018-08-15 05:29:30pm, STATIC, random_7, true, RIGHT, 2385, 0, 0, 0, 0
27,2018-08-15 05:29:33pm, STATIC, random_7, true, RIGHT, 2671, 0, 0, 0, 0
28,2018-08-15 05:29:35pm, STATIC, random_7, false, LEFT, 2672, 1, 1, 1, 1
29,2018-08-15 05:29:38pm, STATIC, random_7, true, RIGHT, 2640, 0, 0, 0, 0
30,2018-08-15 05:29:40pm, STATIC, random_7, false, LEFT, 2336, 0, 1, 1, 0
31,2018-08-15 05:29:42pm, STATIC, random_7, false, LEFT, 2232, 0, 0, 0, 0
32,2018-08-15 05:29:45pm, STATIC, random_7, true, RIGHT, 2320, 1, 0, 1, 0
33,2018-08-15 05:29:47pm, STATIC, random_7, false, LEFT, 2392, 0, 0, 0, 0
34,2018-08-15 05:29:50pm, STATIC, random_7, false, LEFT, 2431, 0, 0, 0, 0
35,2018-08-15 05:29:52pm, STATIC, random_7, true, RIGHT, 2305, 0, 0, 0, 0
36,2018-08-15 05:29:54pm, STATIC, random_7, true, RIGHT, 2328, 0, 0, 0, 0
37,2018-08-15 05:29:57pm, STATIC, random_7, false, LEFT, 2264, 0, 1, 1, 0
38,2018-08-15 05:29:59pm, STATIC, random_7, true, RIGHT, 2280, 1, 0, 1, 0
39,2018-08-15 05:30:01pm, STATIC, random_7, true, RIGHT, 2591, 1, 0, 1, 0
40,2018-08-15 05:30:04pm, STATIC, random_7, true, RIGHT, 2305, 0, 0, 0, 0
41,2018-08-15 05:30:06pm, STATIC, random_7, false, LEFT, 2624, 1, 0, 0, 1
42,2018-08-15 05:30:09pm, STATIC, random_7, false, LEFT, 2520, 0, 0, 0, 0
43,2018-08-15 05:30:11pm, STATIC, random_7, true, RIGHT, 2432, 0, 1, 0, 1
44,2018-08-15 05:30:13pm, STATIC, random_7, false, LEFT, 2216, 0, 0, 0, 0
45,2018-08-15 05:30:16pm, STATIC, random_7, true, RIGHT, 2336, 0, 0, 0, 0
46,2018-08-15 05:30:18pm, STATIC, random_7, true, RIGHT, 2336, 0, 1, 0, 1
47,2018-08-15 05:30:20pm, STATIC, random_7, false, LEFT, 2207, 0, 0, 0, 0
48,2018-08-15 05:30:23pm, STATIC, random_7, true, RIGHT, 2344, 0, 1, 0, 1
49,2018-08-15 05:30:25pm, STATIC, random_7, true, RIGHT, 2209, 0, 0, 0, 0
50,2018-08-15 05:30:27pm, STATIC, random_7, false, LEFT, 2318, 1, 0, 0, 1
51,2018-08-15 05:30:30pm, STATIC, random_7, false, LEFT, 2762, 0, 0, 0, 0
52,2018-08-15 05:30:33pm, STATIC, random_7, true, RIGHT, 3032, 1, 0, 1, 0
53,2018-08-15 05:30:36pm, STATIC, random_7, true, RIGHT, 2639, 0, 1, 0, 1
54,2018-08-15 05:30:39pm, STATIC, random_7, false, LEFT, 3161, 0, 0, 0, 0
55,2018-08-15 05:30:41pm, STATIC, random_7, true, RIGHT, 2608, 0, 0, 0, 0
56,2018-08-15 05:30:44pm, STATIC, random_7, true, RIGHT, 2400, 0, 0, 0, 0
57,2018-08-15 05:30:46pm, STATIC, random_7, true, RIGHT, 2591, 1, 0, 1, 0
58,2018-08-15 05:30:50pm, STATIC, random_7, true, RIGHT, 3168, 0, 0, 0, 0
59,2018-08-15 05:30:53pm, STATIC, random_7, true, RIGHT, 3176, 0, 1, 0, 1
60,2018-08-15 05:30:55pm, STATIC, random_7, false, LEFT, 2664, 0, 1, 1, 0
61,2018-08-15 05:30:58pm, STATIC, random_7, true, RIGHT, 2960, 0, 0, 0, 0
62,2018-08-15 05:31:01pm, STATIC, random_7, true, RIGHT, 2976, 0, 0, 0, 0
63,2018-08-15 05:31:04pm, STATIC, random_7, true, RIGHT, 2744, 0, 0, 0, 0
64,2018-08-15 05:31:07pm, STATIC, random_7, false, LEFT, 2456, 1, 0, 0, 1
65,2018-08-15 05:31:09pm, STATIC, random_7, true, RIGHT, 2632, 0, 1, 0, 1
66,2018-08-15 05:31:12pm, STATIC, random_7, true, RIGHT, 2328, 0, 0, 0, 0
67,2018-08-15 05:31:15pm, STATIC, random_7, false, LEFT, 3792, 1, 0, 0, 1
68,2018-08-15 05:31:18pm, STATIC, random_7, false, LEFT, 2840, 1, 1, 1, 1
69,2018-08-15 05:31:21pm, STATIC, random_7, false, LEFT, 2496, 1, 0, 0, 1
70,2018-08-15 05:31:23pm, STATIC, random_7, false, LEFT, 2256, 0, 0, 0, 0
71,2018-08-15 05:31:26pm, STATIC, random_7, true, RIGHT, 2664, 0, 1, 0, 1
72,2018-08-15 05:31:28pm, STATIC, random_7, true, RIGHT, 2352, 0, 0, 0, 0
73,2018-08-15 05:31:30pm, STATIC, random_7, true, RIGHT, 2520, 0, 0, 0, 0
74,2018-08-15 05:31:33pm, STATIC, random_7, true, RIGHT, 2776, 0, 0, 0, 0
75,2018-08-15 05:31:36pm, STATIC, random_7, false, LEFT, 2512, 1, 0, 0, 1
76,2018-08-15 05:31:38pm, STATIC, random_7, false, LEFT, 2672, 0, 0, 0, 0
77,2018-08-15 05:31:41pm, STATIC, random_7, true, RIGHT, 2480, 0, 0, 0, 0
78,2018-08-15 05:31:43pm, STATIC, random_7, false, LEFT, 2416, 1, 0, 0, 1
79,2018-08-15 05:31:46pm, STATIC, random_7, true, RIGHT, 2496, 0, 0, 0, 0
80,2018-08-15 05:31:48pm, STATIC, random_7, false, LEFT, 2312, 0, 0, 0, 0
81,2018-08-15 05:31:50pm, STATIC, random_7, true, RIGHT, 2248, 0, 1, 0, 1
82,2018-08-15 05:31:53pm, STATIC, random_7, true, RIGHT, 2728, 0, 0, 0, 0
83,2018-08-15 05:31:56pm, STATIC, random_7, true, RIGHT, 2489, 0, 0, 0, 0
84,2018-08-15 05:31:58pm, STATIC, random_7, true, RIGHT, 2447, 1, 0, 1, 0
85,2018-08-15 05:32:00pm, STATIC, random_7, true, RIGHT, 2466, 0, 1, 0, 1
86,2018-08-15 05:32:03pm, STATIC, random_7, false, LEFT, 2158, 0, 0, 0, 0
87,2018-08-15 05:32:05pm, STATIC, random_7, false, LEFT, 2207, 0, 0, 0, 0
88,2018-08-15 05:32:07pm, STATIC, random_7, false, LEFT, 2217, 0, 0, 0, 0
89,2018-08-15 05:32:09pm, STATIC, random_7, false, LEFT, 2223, 1, 0, 0, 1
90,2018-08-15 05:32:12pm, STATIC, random_7, false, LEFT, 2393, 0, 0, 0, 0
91,2018-08-15 05:32:14pm, STATIC, random_7, true, RIGHT, 2295, 0, 0, 0, 0
92,2018-08-15 05:32:16pm, STATIC, random_7, true, RIGHT, 2313, 0, 1, 0, 1
93,2018-08-15 05:32:19pm, STATIC, random_7, false, LEFT, 2264, 0, 1, 1, 0
94,2018-08-15 05:32:21pm, STATIC, random_7, true, RIGHT, 2312, 0, 0, 0, 0
95,2018-08-15 05:32:23pm, STATIC, random_7, true, RIGHT, 2303, 1, 0, 1, 0
96,2018-08-15 05:32:25pm, STATIC, random_7, true, RIGHT, 2305, 0, 0, 0, 0
97,2018-08-15 05:32:28pm, STATIC, random_7, false, LEFT, 2152, 0, 1, 1, 0
98,2018-08-15 05:32:30pm, STATIC, random_7, true, RIGHT, 2504, 0, 0, 0, 0
99,2018-08-15 05:32:32pm, STATIC, random_7, true, RIGHT, 2312, 0, 0, 0, 0
