trial_number, time, schedule_type, schedule_name, is_biased_choice, side_choice, RT, observed_reward, unobserved_reward, biased_reward, unbiased_reward
0,2018-08-15 03:27:48pm, STATIC, random_7, true, RIGHT, 7150, 1, 0, 1, 0
1,2018-08-15 03:27:54pm, STATIC, random_7, true, RIGHT, 5845, 0, 0, 0, 0
2,2018-08-15 03:27:58pm, STATIC, random_7, true, RIGHT, 4245, 1, 0, 1, 0
3,2018-08-15 03:28:05pm, STATIC, random_7, true, RIGHT, 6645, 0, 0, 0, 0
4,2018-08-15 03:28:09pm, STATIC, random_7, true, RIGHT, 4324, 1, 0, 1, 0
5,2018-08-15 03:28:12pm, STATIC, random_7, true, RIGHT, 3144, 0, 0, 0, 0
6,2018-08-15 03:28:15pm, STATIC, random_7, true, RIGHT, 3061, 0, 0, 0, 0
7,2018-08-15 03:28:18pm, STATIC, random_7, true, RIGHT, 3164, 1, 0, 1, 0
8,2018-08-15 03:28:21pm, STATIC, random_7, true, RIGHT, 2862, 0, 1, 0, 1
9,2018-08-15 03:28:24pm, STATIC, random_7, true, RIGHT, 2842, 1, 0, 1, 0
10,2018-08-15 03:28:27pm, STATIC, random_7, true, RIGHT, 2823, 0, 0, 0, 0
11,2018-08-15 03:28:30pm, STATIC, random_7, true, RIGHT, 3063, 0, 0, 0, 0
12,2018-08-15 03:28:33pm, STATIC, random_7, true, RIGHT, 2601, 0, 0, 0, 0
13,2018-08-15 03:28:35pm, STATIC, random_7, true, RIGHT, 2583, 0, 0, 0, 0
14,2018-08-15 03:28:38pm, STATIC, random_7, true, RIGHT, 2463, 0, 1, 0, 1
15,2018-08-15 03:28:40pm, STATIC, random_7, true, RIGHT, 2662, 1, 0, 1, 0
16,2018-08-15 03:28:43pm, STATIC, random_7, false, LEFT, 2662, 1, 1, 1, 1
17,2018-08-15 03:28:45pm, STATIC, random_7, true, RIGHT, 2542, 0, 1, 0, 1
18,2018-08-15 03:28:48pm, STATIC, random_7, true, RIGHT, 2523, 0, 0, 0, 0
19,2018-08-15 03:28:51pm, STATIC, random_7, false, LEFT, 3042, 0, 0, 0, 0
20,2018-08-15 03:28:54pm, STATIC, random_7, false, LEFT, 3103, 1, 1, 1, 1
21,2018-08-15 03:28:57pm, STATIC, random_7, false, LEFT, 2522, 0, 1, 1, 0
22,2018-08-15 03:28:59pm, STATIC, random_7, false, LEFT, 2722, 0, 0, 0, 0
23,2018-08-15 03:29:02pm, STATIC, random_7, true, RIGHT, 2902, 1, 0, 1, 0
24,2018-08-15 03:29:05pm, STATIC, random_7, true, RIGHT, 2563, 0, 0, 0, 0
25,2018-08-15 03:29:08pm, STATIC, random_7, true, RIGHT, 2742, 1, 0, 1, 0
26,2018-08-15 03:29:13pm, STATIC, random_7, true, RIGHT, 3562, 0, 0, 0, 0
27,2018-08-15 03:29:15pm, STATIC, random_7, false, LEFT, 3205, 0, 0, 0, 0
28,2018-08-15 03:29:18pm, STATIC, random_7, false, LEFT, 3204, 1, 1, 1, 1
29,2018-08-15 03:29:20pm, STATIC, random_7, false, LEFT, 2662, 0, 0, 0, 0
30,2018-08-15 03:29:23pm, STATIC, random_7, true, RIGHT, 2422, 1, 0, 1, 0
31,2018-08-15 03:29:25pm, STATIC, random_7, true, RIGHT, 2503, 0, 0, 0, 0
32,2018-08-15 03:29:28pm, STATIC, random_7, true, RIGHT, 2522, 1, 0, 1, 0
33,2018-08-15 03:29:30pm, STATIC, random_7, true, RIGHT, 2782, 0, 0, 0, 0
34,2018-08-15 03:29:33pm, STATIC, random_7, true, RIGHT, 2682, 0, 0, 0, 0
35,2018-08-15 03:29:36pm, STATIC, random_7, false, LEFT, 2963, 0, 0, 0, 0
36,2018-08-15 03:29:39pm, STATIC, random_7, false, LEFT, 2502, 0, 0, 0, 0
37,2018-08-15 03:29:41pm, STATIC, random_7, true, RIGHT, 2743, 1, 0, 1, 0
38,2018-08-15 03:29:44pm, STATIC, random_7, true, RIGHT, 2601, 1, 0, 1, 0
39,2018-08-15 03:29:46pm, STATIC, random_7, true, RIGHT, 2524, 1, 0, 1, 0
40,2018-08-15 03:29:49pm, STATIC, random_7, true, RIGHT, 2442, 0, 0, 0, 0
41,2018-08-15 03:29:52pm, STATIC, random_7, false, LEFT, 2643, 1, 0, 0, 1
42,2018-08-15 03:29:54pm, STATIC, random_7, false, LEFT, 2481, 0, 0, 0, 0
43,2018-08-15 03:29:56pm, STATIC, random_7, true, RIGHT, 2383, 0, 1, 0, 1
44,2018-08-15 03:29:59pm, STATIC, random_7, true, RIGHT, 2402, 0, 0, 0, 0
45,2018-08-15 03:30:01pm, STATIC, random_7, false, LEFT, 2402, 0, 0, 0, 0
46,2018-08-15 03:30:04pm, STATIC, random_7, false, LEFT, 2522, 1, 0, 0, 1
47,2018-08-15 03:30:09pm, STATIC, random_7, true, RIGHT, 5066, 0, 0, 0, 0
48,2018-08-15 03:30:12pm, STATIC, random_7, false, LEFT, 2802, 1, 0, 0, 1
49,2018-08-15 03:30:15pm, STATIC, random_7, false, LEFT, 2943, 0, 0, 0, 0
50,2018-08-15 03:30:17pm, STATIC, random_7, false, LEFT, 2482, 1, 0, 0, 1
51,2018-08-15 03:30:20pm, STATIC, random_7, false, LEFT, 3024, 0, 0, 0, 0
52,2018-08-15 03:30:23pm, STATIC, random_7, false, LEFT, 2741, 0, 1, 1, 0
53,2018-08-15 03:30:26pm, STATIC, random_7, true, RIGHT, 2843, 0, 1, 0, 1
54,2018-08-15 03:30:28pm, STATIC, random_7, true, RIGHT, 2563, 0, 0, 0, 0
55,2018-08-15 03:30:31pm, STATIC, random_7, true, RIGHT, 2461, 0, 0, 0, 0
56,2018-08-15 03:30:34pm, STATIC, random_7, false, LEFT, 2862, 0, 0, 0, 0
57,2018-08-15 03:30:36pm, STATIC, random_7, true, RIGHT, 2502, 1, 0, 1, 0
58,2018-08-15 03:30:39pm, STATIC, random_7, true, RIGHT, 2543, 0, 0, 0, 0
59,2018-08-15 03:30:42pm, STATIC, random_7, true, RIGHT, 2983, 0, 1, 0, 1
60,2018-08-15 03:30:44pm, STATIC, random_7, true, RIGHT, 2563, 1, 0, 1, 0
61,2018-08-15 03:30:47pm, STATIC, random_7, true, RIGHT, 2663, 0, 0, 0, 0
62,2018-08-15 03:30:49pm, STATIC, random_7, true, RIGHT, 2442, 0, 0, 0, 0
63,2018-08-15 03:30:52pm, STATIC, random_7, false, LEFT, 2641, 0, 0, 0, 0
64,2018-08-15 03:30:54pm, STATIC, random_7, false, LEFT, 2403, 1, 0, 0, 1
65,2018-08-15 03:30:57pm, STATIC, random_7, false, LEFT, 2423, 1, 0, 0, 1
66,2018-08-15 03:30:59pm, STATIC, random_7, false, LEFT, 2440, 0, 0, 0, 0
67,2018-08-15 03:31:02pm, STATIC, random_7, false, LEFT, 2423, 1, 0, 0, 1
68,2018-08-15 03:31:04pm, STATIC, random_7, false, LEFT, 2482, 1, 1, 1, 1
69,2018-08-15 03:31:07pm, STATIC, random_7, false, LEFT, 2482, 1, 0, 0, 1
70,2018-08-15 03:31:09pm, STATIC, random_7, false, LEFT, 2403, 0, 0, 0, 0
71,2018-08-15 03:31:11pm, STATIC, random_7, false, LEFT, 2482, 1, 0, 0, 1
72,2018-08-15 03:31:14pm, STATIC, random_7, false, LEFT, 2445, 0, 0, 0, 0
73,2018-08-15 03:31:16pm, STATIC, random_7, false, LEFT, 2402, 0, 0, 0, 0
74,2018-08-15 03:31:19pm, STATIC, random_7, false, LEFT, 2422, 0, 0, 0, 0
75,2018-08-15 03:31:21pm, STATIC, random_7, false, LEFT, 2723, 1, 0, 0, 1
76,2018-08-15 03:31:24pm, STATIC, random_7, false, LEFT, 2441, 0, 0, 0, 0
77,2018-08-15 03:31:27pm, STATIC, random_7, false, LEFT, 2903, 0, 0, 0, 0
78,2018-08-15 03:31:29pm, STATIC, random_7, false, LEFT, 2422, 1, 0, 0, 1
79,2018-08-15 03:31:32pm, STATIC, random_7, false, LEFT, 2501, 0, 0, 0, 0
80,2018-08-15 03:31:34pm, STATIC, random_7, false, LEFT, 2402, 0, 0, 0, 0
81,2018-08-15 03:31:37pm, STATIC, random_7, false, LEFT, 2444, 1, 0, 0, 1
82,2018-08-15 03:31:39pm, STATIC, random_7, false, LEFT, 2561, 0, 0, 0, 0
83,2018-08-15 03:31:42pm, STATIC, random_7, false, LEFT, 2542, 0, 0, 0, 0
84,2018-08-15 03:31:44pm, STATIC, random_7, false, LEFT, 2422, 0, 1, 1, 0
85,2018-08-15 03:31:47pm, STATIC, random_7, true, RIGHT, 2743, 0, 1, 0, 1
86,2018-08-15 03:31:49pm, STATIC, random_7, true, RIGHT, 2442, 0, 0, 0, 0
87,2018-08-15 03:31:52pm, STATIC, random_7, true, RIGHT, 2482, 0, 0, 0, 0
88,2018-08-15 03:31:54pm, STATIC, random_7, true, RIGHT, 2321, 0, 0, 0, 0
89,2018-08-15 03:31:57pm, STATIC, random_7, true, RIGHT, 3364, 0, 1, 0, 1
90,2018-08-15 03:32:00pm, STATIC, random_7, true, RIGHT, 2561, 0, 0, 0, 0
91,2018-08-15 03:32:02pm, STATIC, random_7, false, LEFT, 2422, 0, 0, 0, 0
92,2018-08-15 03:32:05pm, STATIC, random_7, false, LEFT, 2402, 1, 0, 0, 1
93,2018-08-15 03:32:07pm, STATIC, random_7, false, LEFT, 2464, 0, 1, 1, 0
94,2018-08-15 03:32:10pm, STATIC, random_7, false, LEFT, 2282, 0, 0, 0, 0
95,2018-08-15 03:32:12pm, STATIC, random_7, false, LEFT, 2562, 0, 1, 1, 0
96,2018-08-15 03:32:15pm, STATIC, random_7, true, RIGHT, 2722, 0, 0, 0, 0
97,2018-08-15 03:32:17pm, STATIC, random_7, false, LEFT, 2563, 0, 1, 1, 0
98,2018-08-15 03:32:20pm, STATIC, random_7, true, RIGHT, 2702, 0, 0, 0, 0
99,2018-08-15 03:32:23pm, STATIC, random_7, false, LEFT, 2583, 0, 0, 0, 0
