trial_number, time, schedule_type, schedule_name, is_biased_choice, side_choice, RT, observed_reward, unobserved_reward, biased_reward, unbiased_reward
0,2019-09-15 12:47:44pm, STATIC, random_7, false, LEFT, 2199, 0, 1, 1, 0
1,2019-09-15 12:47:47pm, STATIC, random_7, true, RIGHT, 2548, 0, 0, 0, 0
2,2019-09-15 12:47:49pm, STATIC, random_7, true, RIGHT, 2406, 0, 1, 1, 0
3,2019-09-15 12:47:51pm, STATIC, random_7, false, LEFT, 2310, 0, 0, 0, 0
4,2019-09-15 12:47:54pm, STATIC, random_7, true, RIGHT, 2340, 0, 1, 1, 0
5,2019-09-15 12:47:56pm, STATIC, random_7, false, LEFT, 2342, 0, 0, 0, 0
6,2019-09-15 12:47:58pm, STATIC, random_7, true, RIGHT, 2272, 0, 0, 0, 0
7,2019-09-15 12:48:01pm, STATIC, random_7, true, RIGHT, 2804, 0, 1, 1, 0
8,2019-09-15 12:48:13pm, STATIC, random_7, false, LEFT, 11297, 1, 0, 0, 1
9,2019-09-15 12:48:21pm, STATIC, random_7, true, RIGHT, 8500, 0, 1, 1, 0
10,2019-09-15 12:48:23pm, STATIC, random_7, false, LEFT, 2317, 0, 0, 0, 0
11,2019-09-15 12:48:26pm, STATIC, random_7, true, RIGHT, 2517, 0, 0, 0, 0
12,2019-09-15 12:48:28pm, STATIC, random_7, false, LEFT, 2235, 0, 0, 0, 0
13,2019-09-15 12:48:30pm, STATIC, random_7, true, RIGHT, 2369, 0, 0, 0, 0
14,2019-09-15 12:48:33pm, STATIC, random_7, false, LEFT, 2448, 1, 0, 0, 1
15,2019-09-15 12:48:37pm, STATIC, random_7, true, RIGHT, 3677, 0, 1, 1, 0
16,2019-09-15 12:48:40pm, STATIC, random_7, false, LEFT, 3512, 1, 1, 1, 1
17,2019-09-15 12:48:42pm, STATIC, random_7, true, RIGHT, 2409, 1, 0, 0, 1
18,2019-09-15 12:48:45pm, STATIC, random_7, true, RIGHT, 2259, 0, 0, 0, 0
19,2019-09-15 12:48:47pm, STATIC, random_7, false, LEFT, 2604, 0, 0, 0, 0
20,2019-09-15 12:48:53pm, STATIC, random_7, true, RIGHT, 5186, 1, 1, 1, 1
21,2019-09-15 12:48:55pm, STATIC, random_7, true, RIGHT, 2235, 0, 1, 1, 0
22,2019-09-15 12:48:59pm, STATIC, random_7, true, RIGHT, 3774, 0, 0, 0, 0
23,2019-09-15 12:49:01pm, STATIC, random_7, false, LEFT, 2649, 0, 1, 1, 0
24,2019-09-15 12:49:04pm, STATIC, random_7, true, RIGHT, 2534, 0, 0, 0, 0
25,2019-09-15 12:49:06pm, STATIC, random_7, false, LEFT, 2139, 0, 1, 1, 0
26,2019-09-15 12:49:09pm, STATIC, random_7, true, RIGHT, 2716, 0, 0, 0, 0
27,2019-09-15 12:49:17pm, STATIC, random_7, false, LEFT, 8434, 0, 0, 0, 0
28,2019-09-15 12:49:19pm, STATIC, random_7, true, RIGHT, 2193, 1, 1, 1, 1
29,2019-09-15 12:49:21pm, STATIC, random_7, false, LEFT, 2178, 0, 0, 0, 0
30,2019-09-15 12:49:23pm, STATIC, random_7, true, RIGHT, 2093, 0, 1, 1, 0
31,2019-09-15 12:49:26pm, STATIC, random_7, false, LEFT, 2290, 0, 0, 0, 0
32,2019-09-15 12:49:28pm, STATIC, random_7, true, RIGHT, 2151, 0, 1, 1, 0
33,2019-09-15 12:49:30pm, STATIC, random_7, false, LEFT, 2537, 0, 0, 0, 0
34,2019-09-15 12:49:32pm, STATIC, random_7, true, RIGHT, 2066, 0, 0, 0, 0
35,2019-09-15 12:49:35pm, STATIC, random_7, true, RIGHT, 2813, 0, 0, 0, 0
36,2019-09-15 12:49:38pm, STATIC, random_7, false, LEFT, 2558, 0, 0, 0, 0
37,2019-09-15 12:49:40pm, STATIC, random_7, true, RIGHT, 2377, 0, 1, 1, 0
38,2019-09-15 12:49:44pm, STATIC, random_7, false, LEFT, 3510, 0, 1, 1, 0
39,2019-09-15 12:49:51pm, STATIC, random_7, true, RIGHT, 7257, 0, 1, 1, 0
40,2019-09-15 12:49:54pm, STATIC, random_7, false, LEFT, 2469, 0, 0, 0, 0
41,2019-09-15 12:50:00pm, STATIC, random_7, true, RIGHT, 6186, 1, 0, 0, 1
42,2019-09-15 12:50:04pm, STATIC, random_7, false, LEFT, 4506, 0, 0, 0, 0
43,2019-09-15 12:50:10pm, STATIC, random_7, true, RIGHT, 5433, 1, 0, 0, 1
44,2019-09-15 12:50:14pm, STATIC, random_7, false, LEFT, 4503, 0, 0, 0, 0
45,2019-09-15 12:50:17pm, STATIC, random_7, true, RIGHT, 2573, 0, 0, 0, 0
46,2019-09-15 12:50:19pm, STATIC, random_7, true, RIGHT, 2249, 1, 0, 0, 1
47,2019-09-15 12:50:27pm, STATIC, random_7, false, LEFT, 8073, 0, 0, 0, 0
48,2019-09-15 12:50:29pm, STATIC, random_7, true, RIGHT, 2414, 1, 0, 0, 1
49,2019-09-15 12:50:32pm, STATIC, random_7, true, RIGHT, 2379, 0, 0, 0, 0
50,2019-09-15 12:50:34pm, STATIC, random_7, true, RIGHT, 2178, 1, 0, 0, 1
51,2019-09-15 12:50:36pm, STATIC, random_7, true, RIGHT, 2377, 0, 0, 0, 0
52,2019-09-15 12:50:43pm, STATIC, random_7, false, LEFT, 6631, 0, 1, 1, 0
53,2019-09-15 12:50:46pm, STATIC, random_7, true, RIGHT, 2898, 1, 0, 0, 1
54,2019-09-15 12:50:49pm, STATIC, random_7, true, RIGHT, 2827, 0, 0, 0, 0
55,2019-09-15 12:50:51pm, STATIC, random_7, true, RIGHT, 2730, 0, 0, 0, 0
56,2019-09-15 12:50:55pm, STATIC, random_7, true, RIGHT, 3369, 0, 0, 0, 0
57,2019-09-15 12:51:01pm, STATIC, random_7, false, LEFT, 5763, 0, 1, 1, 0
58,2019-09-15 12:51:03pm, STATIC, random_7, true, RIGHT, 2854, 0, 0, 0, 0
59,2019-09-15 12:51:11pm, STATIC, random_7, false, LEFT, 7193, 1, 0, 0, 1
60,2019-09-15 12:51:18pm, STATIC, random_7, true, RIGHT, 7617, 0, 1, 1, 0
61,2019-09-15 12:51:24pm, STATIC, random_7, false, LEFT, 5341, 0, 0, 0, 0
62,2019-09-15 12:51:26pm, STATIC, random_7, true, RIGHT, 2377, 0, 0, 0, 0
63,2019-09-15 12:51:28pm, STATIC, random_7, true, RIGHT, 2575, 0, 0, 0, 0
64,2019-09-15 12:51:31pm, STATIC, random_7, false, LEFT, 2735, 1, 0, 0, 1
65,2019-09-15 12:51:40pm, STATIC, random_7, true, RIGHT, 8622, 1, 0, 0, 1
66,2019-09-15 12:51:48pm, STATIC, random_7, true, RIGHT, 8271, 0, 0, 0, 0
67,2019-09-15 12:52:01pm, STATIC, random_7, false, LEFT, 12576, 1, 0, 0, 1
68,2019-09-15 12:52:07pm, STATIC, random_7, true, RIGHT, 6695, 1, 1, 1, 1
69,2019-09-15 12:52:11pm, STATIC, random_7, false, LEFT, 3908, 1, 0, 0, 1
70,2019-09-15 12:52:19pm, STATIC, random_7, true, RIGHT, 7535, 0, 0, 0, 0
71,2019-09-15 12:52:21pm, STATIC, random_7, true, RIGHT, 2143, 1, 0, 0, 1
72,2019-09-15 12:52:24pm, STATIC, random_7, true, RIGHT, 2657, 0, 0, 0, 0
73,2019-09-15 12:52:28pm, STATIC, random_7, true, RIGHT, 4175, 0, 0, 0, 0
74,2019-09-15 12:52:30pm, STATIC, random_7, true, RIGHT, 2537, 0, 0, 0, 0
75,2019-09-15 12:52:32pm, STATIC, random_7, false, LEFT, 2131, 1, 0, 0, 1
76,2019-09-15 12:52:35pm, STATIC, random_7, true, RIGHT, 2436, 0, 0, 0, 0
77,2019-09-15 12:52:49pm, STATIC, random_7, false, LEFT, 14039, 0, 0, 0, 0
78,2019-09-15 12:52:53pm, STATIC, random_7, true, RIGHT, 4023, 1, 0, 0, 1
79,2019-09-15 12:53:00pm, STATIC, random_7, true, RIGHT, 7047, 0, 0, 0, 0
80,2019-09-15 12:53:05pm, STATIC, random_7, false, LEFT, 4966, 0, 0, 0, 0
81,2019-09-15 12:53:09pm, STATIC, random_7, true, RIGHT, 4134, 1, 0, 0, 1
82,2019-09-15 12:53:11pm, STATIC, random_7, true, RIGHT, 2308, 0, 0, 0, 0
83,2019-09-15 12:53:14pm, STATIC, random_7, true, RIGHT, 2465, 0, 0, 0, 0
84,2019-09-15 12:53:16pm, STATIC, random_7, true, RIGHT, 2162, 0, 1, 1, 0
85,2019-09-15 12:53:18pm, STATIC, random_7, true, RIGHT, 2413, 1, 0, 0, 1
86,2019-09-15 12:53:21pm, STATIC, random_7, true, RIGHT, 2323, 0, 0, 0, 0
87,2019-09-15 12:53:24pm, STATIC, random_7, true, RIGHT, 3586, 0, 0, 0, 0
88,2019-09-15 12:53:27pm, STATIC, random_7, true, RIGHT, 2204, 0, 0, 0, 0
89,2019-09-15 12:53:29pm, STATIC, random_7, false, LEFT, 2112, 1, 0, 0, 1
90,2019-09-15 12:53:32pm, STATIC, random_7, true, RIGHT, 3491, 0, 0, 0, 0
91,2019-09-15 12:53:35pm, STATIC, random_7, true, RIGHT, 2340, 0, 0, 0, 0
92,2019-09-15 12:53:37pm, STATIC, random_7, true, RIGHT, 2213, 1, 0, 0, 1
93,2019-09-15 12:53:39pm, STATIC, random_7, true, RIGHT, 2140, 0, 1, 1, 0
94,2019-09-15 12:53:42pm, STATIC, random_7, true, RIGHT, 2927, 0, 0, 0, 0
95,2019-09-15 12:53:44pm, STATIC, random_7, true, RIGHT, 2566, 0, 1, 1, 0
96,2019-09-15 12:53:47pm, STATIC, random_7, true, RIGHT, 3034, 0, 0, 0, 0
97,2019-09-15 12:53:50pm, STATIC, random_7, true, RIGHT, 2914, 0, 1, 1, 0
98,2019-09-15 12:53:53pm, STATIC, random_7, true, RIGHT, 2543, 0, 0, 0, 0
99,2019-09-15 12:53:58pm, STATIC, random_7, true, RIGHT, 5062, 0, 0, 0, 0
