[{"RT":11313,"time": "2018-08-15 03:27:55pm", "schedule_type": "STATIC", "schedule_name": "random_5", "is_biased_choice":false,"side_choice": "RIGHT", "trial_number":0,"observed_reward":0,"unobserved_reward":0},{"RT":6101,"time": "2018-08-15 03:28:01pm", "schedule_type": "STATIC", "schedule_name": "random_5", "is_biased_choice":true,"side_choice": "LEFT", "trial_number":1,"observed_reward":0,"unobserved_reward":1},{"RT":4267,"time": "2018-08-15 03:28:05pm", "schedule_type": "STATIC", "schedule_name": "random_5", "is_biased_choice":true,"side_choice": "LEFT", "trial_number":2,"observed_reward":0,"unobserved_reward":0},{"RT":4256,"time": "2018-08-15 03:28:10pm", "schedule_type": "STATIC", "schedule_name": "random_5", "is_biased_choice":false,"side_choice": "RIGHT", "trial_number":3,"observed_reward":0,"unobserved_reward":0},{"RT":16315,"time": "2018-08-15 03:28:26pm", "schedule_type": "STATIC", "schedule_name": "random_5", "is_biased_choice":false,"side_choice": "RIGHT", "trial_number":4,"observed_reward":1,"unobserved_reward":0},{"RT":5307,"time": "2018-08-15 03:28:31pm", "schedule_type": "STATIC", "schedule_name": "random_5", "is_biased_choice":false,"side_choice": "RIGHT", "trial_number":5,"observed_reward":1,"unobserved_reward":0},{"RT":4679,"time": "2018-08-15 03:28:36pm", "schedule_type": "STATIC", "schedule_name": "random_5", "is_biased_choice":true,"side_choice": "LEFT", "trial_number":6,"observed_reward":1,"unobserved_reward":0},{"RT":5515,"time": "2018-08-15 03:28:42pm", "schedule_type": "STATIC", "schedule_name": "random_5", "is_biased_choice":true,"side_choice": "LEFT", "trial_number":7,"observed_reward":0,"unobserved_reward":0},{"RT":5344,"time": "2018-08-15 03:28:47pm", "schedule_type": "STATIC", "schedule_name": "random_5", "is_biased_choice":false,"side_choice": "RIGHT", "trial_number":8,"observed_reward":1,"unobserved_reward":1},{"RT":3761,"time": "2018-08-15 03:28:51pm", "schedule_type": "STATIC", "schedule_name": "random_5", "is_biased_choice":false,"side_choice": "RIGHT", "trial_number":9,"observed_reward":0,"unobserved_reward":1},{"RT":3416,"time": "2018-08-15 03:28:54pm", "schedule_type": "STATIC", "schedule_name": "random_5", "is_biased_choice":false,"side_choice": "RIGHT", "trial_number":10,"observed_reward":1,"unobserved_reward":1},{"RT":3392,"time": "2018-08-15 03:28:57pm", "schedule_type": "STATIC", "schedule_name": "random_5", "is_biased_choice":true,"side_choice": "LEFT", "trial_number":11,"observed_reward":0,"unobserved_reward":0},{"RT":3528,"time": "2018-08-15 03:29:01pm", "schedule_type": "STATIC", "schedule_name": "random_5", "is_biased_choice":true,"side_choice": "LEFT", "trial_number":12,"observed_reward":0,"unobserved_reward":0},{"RT":3821,"time": "2018-08-15 03:29:05pm", "schedule_type": "STATIC", "schedule_name": "random_5", "is_biased_choice":true,"side_choice": "LEFT", "trial_number":13,"observed_reward":0,"unobserved_reward":0},{"RT":4146,"time": "2018-08-15 03:29:09pm", "schedule_type": "STATIC", "schedule_name": "random_5", "is_biased_choice":false,"side_choice": "RIGHT", "trial_number":14,"observed_reward":0,"unobserved_reward":0},{"RT":3833,"time": "2018-08-15 03:29:14pm", "schedule_type": "STATIC", "schedule_name": "random_5", "is_biased_choice":true,"side_choice": "LEFT", "trial_number":15,"observed_reward":0,"unobserved_reward":0},{"RT":3818,"time": "2018-08-15 03:29:17pm", "schedule_type": "STATIC", "schedule_name": "random_5", "is_biased_choice":false,"side_choice": "RIGHT", "trial_number":16,"observed_reward":0,"unobserved_reward":0},{"RT":3509,"time": "2018-08-15 03:29:20pm", "schedule_type": "STATIC", "schedule_name": "random_5", "is_biased_choice":true,"side_choice": "LEFT", "trial_number":17,"observed_reward":1,"unobserved_reward":0},{"RT":3376,"time": "2018-08-15 03:29:24pm", "schedule_type": "STATIC", "schedule_name": "random_5", "is_biased_choice":false,"side_choice": "RIGHT", "trial_number":18,"observed_reward":0,"unobserved_reward":0},{"RT":4063,"time": "2018-08-15 03:29:28pm", "schedule_type": "STATIC", "schedule_name": "random_5", "is_biased_choice":true,"side_choice": "LEFT", "trial_number":19,"observed_reward":0,"unobserved_reward":0},{"RT":4123,"time": "2018-08-15 03:29:32pm", "schedule_type": "STATIC", "schedule_name": "random_5", "is_biased_choice":false,"side_choice": "RIGHT", "trial_number":20,"observed_reward":1,"unobserved_reward":0},{"RT":4816,"time": "2018-08-15 03:29:37pm", "schedule_type": "STATIC", "schedule_name": "random_5", "is_biased_choice":true,"side_choice": "LEFT", "trial_number":21,"observed_reward":0,"unobserved_reward":1},{"RT":4208,"time": "2018-08-15 03:29:41pm", "schedule_type": "STATIC", "schedule_name": "random_5", "is_biased_choice":true,"side_choice": "LEFT", "trial_number":22,"observed_reward":0,"unobserved_reward":0},{"RT":4103,"time": "2018-08-15 03:29:45pm", "schedule_type": "STATIC", "schedule_name": "random_5", "is_biased_choice":false,"side_choice": "RIGHT", "trial_number":23,"observed_reward":1,"unobserved_reward":0},{"RT":3656,"time": "2018-08-15 03:29:48pm", "schedule_type": "STATIC", "schedule_name": "random_5", "is_biased_choice":false,"side_choice": "RIGHT", "trial_number":24,"observed_reward":0,"unobserved_reward":0},{"RT":3470,"time": "2018-08-15 03:29:52pm", "schedule_type": "STATIC", "schedule_name": "random_5", "is_biased_choice":true,"side_choice": "LEFT", "trial_number":25,"observed_reward":0,"unobserved_reward":0},{"RT":3674,"time": "2018-08-15 03:29:56pm", "schedule_type": "STATIC", "schedule_name": "random_5", "is_biased_choice":false,"side_choice": "RIGHT", "trial_number":26,"observed_reward":0,"unobserved_reward":0},{"RT":3610,"time": "2018-08-15 03:29:59pm", "schedule_type": "STATIC", "schedule_name": "random_5", "is_biased_choice":true,"side_choice": "LEFT", "trial_number":27,"observed_reward":1,"unobserved_reward":1},{"RT":3295,"time": "2018-08-15 03:30:03pm", "schedule_type": "STATIC", "schedule_name": "random_5", "is_biased_choice":true,"side_choice": "LEFT", "trial_number":28,"observed_reward":0,"unobserved_reward":0},{"RT":3533,"time": "2018-08-15 03:30:06pm", "schedule_type": "STATIC", "schedule_name": "random_5", "is_biased_choice":false,"side_choice": "RIGHT", "trial_number":29,"observed_reward":0,"unobserved_reward":0},{"RT":3011,"time": "2018-08-15 03:30:09pm", "schedule_type": "STATIC", "schedule_name": "random_5", "is_biased_choice":true,"side_choice": "LEFT", "trial_number":30,"observed_reward":0,"unobserved_reward":0},{"RT":3237,"time": "2018-08-15 03:30:12pm", "schedule_type": "STATIC", "schedule_name": "random_5", "is_biased_choice":true,"side_choice": "LEFT", "trial_number":31,"observed_reward":0,"unobserved_reward":0},{"RT":2955,"time": "2018-08-15 03:30:15pm", "schedule_type": "STATIC", "schedule_name": "random_5", "is_biased_choice":false,"side_choice": "RIGHT", "trial_number":32,"observed_reward":0,"unobserved_reward":1},{"RT":2705,"time": "2018-08-15 03:30:18pm", "schedule_type": "STATIC", "schedule_name": "random_5", "is_biased_choice":true,"side_choice": "LEFT", "trial_number":33,"observed_reward":0,"unobserved_reward":1},{"RT":3622,"time": "2018-08-15 03:30:22pm", "schedule_type": "STATIC", "schedule_name": "random_5", "is_biased_choice":false,"side_choice": "RIGHT", "trial_number":34,"observed_reward":0,"unobserved_reward":0},{"RT":2998,"time": "2018-08-15 03:30:25pm", "schedule_type": "STATIC", "schedule_name": "random_5", "is_biased_choice":true,"side_choice": "LEFT", "trial_number":35,"observed_reward":1,"unobserved_reward":0},{"RT":3690,"time": "2018-08-15 03:30:28pm", "schedule_type": "STATIC", "schedule_name": "random_5", "is_biased_choice":true,"side_choice": "LEFT", "trial_number":36,"observed_reward":1,"unobserved_reward":0},{"RT":3681,"time": "2018-08-15 03:30:32pm", "schedule_type": "STATIC", "schedule_name": "random_5", "is_biased_choice":false,"side_choice": "RIGHT", "trial_number":37,"observed_reward":0,"unobserved_reward":1},{"RT":3367,"time": "2018-08-15 03:30:35pm", "schedule_type": "STATIC", "schedule_name": "random_5", "is_biased_choice":true,"side_choice": "LEFT", "trial_number":38,"observed_reward":0,"unobserved_reward":0},{"RT":3377,"time": "2018-08-15 03:30:39pm", "schedule_type": "STATIC", "schedule_name": "random_5", "is_biased_choice":true,"side_choice": "LEFT", "trial_number":39,"observed_reward":0,"unobserved_reward":0},{"RT":6882,"time": "2018-08-15 03:30:46pm", "schedule_type": "STATIC", "schedule_name": "random_5", "is_biased_choice":false,"side_choice": "RIGHT", "trial_number":40,"observed_reward":1,"unobserved_reward":1},{"RT":4579,"time": "2018-08-15 03:30:50pm", "schedule_type": "STATIC", "schedule_name": "random_5", "is_biased_choice":false,"side_choice": "RIGHT", "trial_number":41,"observed_reward":1,"unobserved_reward":1},{"RT":5649,"time": "2018-08-15 03:30:56pm", "schedule_type": "STATIC", "schedule_name": "random_5", "is_biased_choice":true,"side_choice": "LEFT", "trial_number":42,"observed_reward":0,"unobserved_reward":0},{"RT":5403,"time": "2018-08-15 03:31:01pm", "schedule_type": "STATIC", "schedule_name": "random_5", "is_biased_choice":true,"side_choice": "LEFT", "trial_number":43,"observed_reward":0,"unobserved_reward":1},{"RT":6957,"time": "2018-08-15 03:31:08pm", "schedule_type": "STATIC", "schedule_name": "random_5", "is_biased_choice":false,"side_choice": "RIGHT", "trial_number":44,"observed_reward":0,"unobserved_reward":1},{"RT":5922,"time": "2018-08-15 03:31:14pm", "schedule_type": "STATIC", "schedule_name": "random_5", "is_biased_choice":true,"side_choice": "LEFT", "trial_number":45,"observed_reward":0,"unobserved_reward":0},{"RT":6501,"time": "2018-08-15 03:31:21pm", "schedule_type": "STATIC", "schedule_name": "random_5", "is_biased_choice":false,"side_choice": "RIGHT", "trial_number":46,"observed_reward":0,"unobserved_reward":0},{"RT":4644,"time": "2018-08-15 03:31:25pm", "schedule_type": "STATIC", "schedule_name": "random_5", "is_biased_choice":true,"side_choice": "LEFT", "trial_number":47,"observed_reward":1,"unobserved_reward":1},{"RT":6310,"time": "2018-08-15 03:31:32pm", "schedule_type": "STATIC", "schedule_name": "random_5", "is_biased_choice":false,"side_choice": "RIGHT", "trial_number":48,"observed_reward":0,"unobserved_reward":0},{"RT":4185,"time": "2018-08-15 03:31:36pm", "schedule_type": "STATIC", "schedule_name": "random_5", "is_biased_choice":true,"side_choice": "LEFT", "trial_number":49,"observed_reward":0,"unobserved_reward":1},{"RT":4466,"time": "2018-08-15 03:31:40pm", "schedule_type": "STATIC", "schedule_name": "random_5", "is_biased_choice":false,"side_choice": "RIGHT", "trial_number":50,"observed_reward":0,"unobserved_reward":0},{"RT":5282,"time": "2018-08-15 03:31:45pm", "schedule_type": "STATIC", "schedule_name": "random_5", "is_biased_choice":true,"side_choice": "LEFT", "trial_number":51,"observed_reward":0,"unobserved_reward":0},{"RT":5946,"time": "2018-08-15 03:31:51pm", "schedule_type": "STATIC", "schedule_name": "random_5", "is_biased_choice":false,"side_choice": "RIGHT", "trial_number":52,"observed_reward":0,"unobserved_reward":1},{"RT":4785,"time": "2018-08-15 03:31:56pm", "schedule_type": "STATIC", "schedule_name": "random_5", "is_biased_choice":true,"side_choice": "LEFT", "trial_number":53,"observed_reward":0,"unobserved_reward":1},{"RT":5307,"time": "2018-08-15 03:32:02pm", "schedule_type": "STATIC", "schedule_name": "random_5", "is_biased_choice":false,"side_choice": "RIGHT", "trial_number":54,"observed_reward":0,"unobserved_reward":0},{"RT":5111,"time": "2018-08-15 03:32:07pm", "schedule_type": "STATIC", "schedule_name": "random_5", "is_biased_choice":false,"side_choice": "RIGHT", "trial_number":55,"observed_reward":1,"unobserved_reward":0},{"RT":5024,"time": "2018-08-15 03:32:12pm", "schedule_type": "STATIC", "schedule_name": "random_5", "is_biased_choice":false,"side_choice": "RIGHT", "trial_number":56,"observed_reward":0,"unobserved_reward":0},{"RT":4382,"time": "2018-08-15 03:32:16pm", "schedule_type": "STATIC", "schedule_name": "random_5", "is_biased_choice":false,"side_choice": "RIGHT", "trial_number":57,"observed_reward":0,"unobserved_reward":1},{"RT":4157,"time": "2018-08-15 03:32:20pm", "schedule_type": "STATIC", "schedule_name": "random_5", "is_biased_choice":true,"side_choice": "LEFT", "trial_number":58,"observed_reward":0,"unobserved_reward":0},{"RT":4834,"time": "2018-08-15 03:32:25pm", "schedule_type": "STATIC", "schedule_name": "random_5", "is_biased_choice":false,"side_choice": "RIGHT", "trial_number":59,"observed_reward":0,"unobserved_reward":0},{"RT":4869,"time": "2018-08-15 03:32:30pm", "schedule_type": "STATIC", "schedule_name": "random_5", "is_biased_choice":true,"side_choice": "LEFT", "trial_number":60,"observed_reward":0,"unobserved_reward":1},{"RT":4780,"time": "2018-08-15 03:32:35pm", "schedule_type": "STATIC", "schedule_name": "random_5", "is_biased_choice":false,"side_choice": "RIGHT", "trial_number":61,"observed_reward":0,"unobserved_reward":0},{"RT":4200,"time": "2018-08-15 03:32:39pm", "schedule_type": "STATIC", "schedule_name": "random_5", "is_biased_choice":false,"side_choice": "RIGHT", "trial_number":62,"observed_reward":0,"unobserved_reward":0},{"RT":4015,"time": "2018-08-15 03:32:43pm", "schedule_type": "STATIC", "schedule_name": "random_5", "is_biased_choice":true,"side_choice": "LEFT", "trial_number":63,"observed_reward":0,"unobserved_reward":0},{"RT":4206,"time": "2018-08-15 03:32:47pm", "schedule_type": "STATIC", "schedule_name": "random_5", "is_biased_choice":false,"side_choice": "RIGHT", "trial_number":64,"observed_reward":1,"unobserved_reward":0},{"RT":5355,"time": "2018-08-15 03:32:52pm", "schedule_type": "STATIC", "schedule_name": "random_5", "is_biased_choice":false,"side_choice": "RIGHT", "trial_number":65,"observed_reward":0,"unobserved_reward":1},{"RT":5279,"time": "2018-08-15 03:32:58pm", "schedule_type": "STATIC", "schedule_name": "random_5", "is_biased_choice":true,"side_choice": "LEFT", "trial_number":66,"observed_reward":0,"unobserved_reward":0},{"RT":5684,"time": "2018-08-15 03:33:03pm", "schedule_type": "STATIC", "schedule_name": "random_5", "is_biased_choice":false,"side_choice": "RIGHT", "trial_number":67,"observed_reward":1,"unobserved_reward":0},{"RT":8502,"time": "2018-08-15 03:33:12pm", "schedule_type": "STATIC", "schedule_name": "random_5", "is_biased_choice":false,"side_choice": "RIGHT", "trial_number":68,"observed_reward":0,"unobserved_reward":0},{"RT":8311,"time": "2018-08-15 03:33:20pm", "schedule_type": "STATIC", "schedule_name": "random_5", "is_biased_choice":true,"side_choice": "LEFT", "trial_number":69,"observed_reward":0,"unobserved_reward":0},{"RT":5665,"time": "2018-08-15 03:33:26pm", "schedule_type": "STATIC", "schedule_name": "random_5", "is_biased_choice":false,"side_choice": "RIGHT", "trial_number":70,"observed_reward":1,"unobserved_reward":0},{"RT":5506,"time": "2018-08-15 03:33:31pm", "schedule_type": "STATIC", "schedule_name": "random_5", "is_biased_choice":false,"side_choice": "RIGHT", "trial_number":71,"observed_reward":0,"unobserved_reward":0},{"RT":6231,"time": "2018-08-15 03:33:38pm", "schedule_type": "STATIC", "schedule_name": "random_5", "is_biased_choice":true,"side_choice": "LEFT", "trial_number":72,"observed_reward":1,"unobserved_reward":0},{"RT":5600,"time": "2018-08-15 03:33:43pm", "schedule_type": "STATIC", "schedule_name": "random_5", "is_biased_choice":false,"side_choice": "RIGHT", "trial_number":73,"observed_reward":0,"unobserved_reward":1},{"RT":5888,"time": "2018-08-15 03:33:49pm", "schedule_type": "STATIC", "schedule_name": "random_5", "is_biased_choice":true,"side_choice": "LEFT", "trial_number":74,"observed_reward":1,"unobserved_reward":0},{"RT":5068,"time": "2018-08-15 03:33:54pm", "schedule_type": "STATIC", "schedule_name": "random_5", "is_biased_choice":false,"side_choice": "RIGHT", "trial_number":75,"observed_reward":0,"unobserved_reward":0},{"RT":4931,"time": "2018-08-15 03:33:59pm", "schedule_type": "STATIC", "schedule_name": "random_5", "is_biased_choice":false,"side_choice": "RIGHT", "trial_number":76,"observed_reward":1,"unobserved_reward":0},{"RT":4513,"time": "2018-08-15 03:34:04pm", "schedule_type": "STATIC", "schedule_name": "random_5", "is_biased_choice":true,"side_choice": "LEFT", "trial_number":77,"observed_reward":1,"unobserved_reward":0},{"RT":7103,"time": "2018-08-15 03:34:11pm", "schedule_type": "STATIC", "schedule_name": "random_5", "is_biased_choice":false,"side_choice": "RIGHT", "trial_number":78,"observed_reward":0,"unobserved_reward":0},{"RT":7080,"time": "2018-08-15 03:34:18pm", "schedule_type": "STATIC", "schedule_name": "random_5", "is_biased_choice":false,"side_choice": "RIGHT", "trial_number":79,"observed_reward":0,"unobserved_reward":0},{"RT":4998,"time": "2018-08-15 03:34:23pm", "schedule_type": "STATIC", "schedule_name": "random_5", "is_biased_choice":true,"side_choice": "LEFT", "trial_number":80,"observed_reward":0,"unobserved_reward":0},{"RT":6067,"time": "2018-08-15 03:34:29pm", "schedule_type": "STATIC", "schedule_name": "random_5", "is_biased_choice":false,"side_choice": "RIGHT", "trial_number":81,"observed_reward":0,"unobserved_reward":0},{"RT":4415,"time": "2018-08-15 03:34:33pm", "schedule_type": "STATIC", "schedule_name": "random_5", "is_biased_choice":false,"side_choice": "RIGHT", "trial_number":82,"observed_reward":0,"unobserved_reward":0},{"RT":4548,"time": "2018-08-15 03:34:38pm", "schedule_type": "STATIC", "schedule_name": "random_5", "is_biased_choice":true,"side_choice": "LEFT", "trial_number":83,"observed_reward":0,"unobserved_reward":1},{"RT":4888,"time": "2018-08-15 03:34:43pm", "schedule_type": "STATIC", "schedule_name": "random_5", "is_biased_choice":false,"side_choice": "RIGHT", "trial_number":84,"observed_reward":0,"unobserved_reward":1},{"RT":4618,"time": "2018-08-15 03:34:47pm", "schedule_type": "STATIC", "schedule_name": "random_5", "is_biased_choice":false,"side_choice": "RIGHT", "trial_number":85,"observed_reward":0,"unobserved_reward":0},{"RT":4266,"time": "2018-08-15 03:34:52pm", "schedule_type": "STATIC", "schedule_name": "random_5", "is_biased_choice":false,"side_choice": "RIGHT", "trial_number":86,"observed_reward":0,"unobserved_reward":0},{"RT":4144,"time": "2018-08-15 03:34:56pm", "schedule_type": "STATIC", "schedule_name": "random_5", "is_biased_choice":true,"side_choice": "LEFT", "trial_number":87,"observed_reward":1,"unobserved_reward":0},{"RT":5960,"time": "2018-08-15 03:35:02pm", "schedule_type": "STATIC", "schedule_name": "random_5", "is_biased_choice":false,"side_choice": "RIGHT", "trial_number":88,"observed_reward":0,"unobserved_reward":0},{"RT":3898,"time": "2018-08-15 03:35:06pm", "schedule_type": "STATIC", "schedule_name": "random_5", "is_biased_choice":true,"side_choice": "LEFT", "trial_number":89,"observed_reward":0,"unobserved_reward":0},{"RT":4824,"time": "2018-08-15 03:35:10pm", "schedule_type": "STATIC", "schedule_name": "random_5", "is_biased_choice":false,"side_choice": "RIGHT", "trial_number":90,"observed_reward":1,"unobserved_reward":1},{"RT":4454,"time": "2018-08-15 03:35:15pm", "schedule_type": "STATIC", "schedule_name": "random_5", "is_biased_choice":true,"side_choice": "LEFT", "trial_number":91,"observed_reward":0,"unobserved_reward":0},{"RT":4017,"time": "2018-08-15 03:35:19pm", "schedule_type": "STATIC", "schedule_name": "random_5", "is_biased_choice":false,"side_choice": "RIGHT", "trial_number":92,"observed_reward":0,"unobserved_reward":1},{"RT":3769,"time": "2018-08-15 03:35:23pm", "schedule_type": "STATIC", "schedule_name": "random_5", "is_biased_choice":true,"side_choice": "LEFT", "trial_number":93,"observed_reward":0,"unobserved_reward":1},{"RT":4575,"time": "2018-08-15 03:35:27pm", "schedule_type": "STATIC", "schedule_name": "random_5", "is_biased_choice":false,"side_choice": "RIGHT", "trial_number":94,"observed_reward":0,"unobserved_reward":0},{"RT":3697,"time": "2018-08-15 03:35:31pm", "schedule_type": "STATIC", "schedule_name": "random_5", "is_biased_choice":true,"side_choice": "LEFT", "trial_number":95,"observed_reward":0,"unobserved_reward":0},{"RT":4127,"time": "2018-08-15 03:35:35pm", "schedule_type": "STATIC", "schedule_name": "random_5", "is_biased_choice":true,"side_choice": "LEFT", "trial_number":96,"observed_reward":0,"unobserved_reward":0},{"RT":4042,"time": "2018-08-15 03:35:39pm", "schedule_type": "STATIC", "schedule_name": "random_5", "is_biased_choice":false,"side_choice": "RIGHT", "trial_number":97,"observed_reward":0,"unobserved_reward":0},{"RT":4037,"time": "2018-08-15 03:35:43pm", "schedule_type": "STATIC", "schedule_name": "random_5", "is_biased_choice":true,"side_choice": "LEFT", "trial_number":98,"observed_reward":0,"unobserved_reward":0},