trial_number, time, schedule_type, schedule_name, is_biased_choice, side_choice, RT, observed_reward, unobserved_reward, biased_reward, unbiased_reward
0,2018-08-15 05:28:16pm, STATIC, random_14, false, RIGHT, 1337, 0, 0, 0, 0
1,2018-08-15 05:28:19pm, STATIC, random_14, true, LEFT, 2711, 0, 0, 0, 0
2,2018-08-15 05:28:21pm, STATIC, random_14, true, LEFT, 2279, 1, 0, 1, 0
3,2018-08-15 05:28:23pm, STATIC, random_14, true, LEFT, 2409, 1, 0, 1, 0
4,2018-08-15 05:28:27pm, STATIC, random_14, true, LEFT, 2824, 0, 0, 0, 0
5,2018-08-15 05:28:29pm, STATIC, random_14, true, LEFT, 2444, 0, 0, 0, 0
6,2018-08-15 05:28:31pm, STATIC, random_14, false, RIGHT, 2514, 0, 0, 0, 0
7,2018-08-15 05:28:33pm, STATIC, random_14, false, RIGHT, 2250, 0, 0, 0, 0
8,2018-08-15 05:28:36pm, STATIC, random_14, false, RIGHT, 2183, 0, 0, 0, 0
9,2018-08-15 05:28:38pm, STATIC, random_14, false, RIGHT, 2193, 1, 0, 0, 1
10,2018-08-15 05:28:40pm, STATIC, random_14, false, RIGHT, 2240, 0, 0, 0, 0
11,2018-08-15 05:28:42pm, STATIC, random_14, false, RIGHT, 2200, 1, 1, 1, 1
12,2018-08-15 05:28:45pm, STATIC, random_14, false, RIGHT, 2304, 1, 0, 0, 1
13,2018-08-15 05:28:47pm, STATIC, random_14, false, RIGHT, 2531, 0, 0, 0, 0
14,2018-08-15 05:28:50pm, STATIC, random_14, false, RIGHT, 2580, 0, 0, 0, 0
15,2018-08-15 05:28:52pm, STATIC, random_14, true, LEFT, 2348, 0, 0, 0, 0
16,2018-08-15 05:28:54pm, STATIC, random_14, true, LEFT, 2238, 0, 0, 0, 0
17,2018-08-15 05:28:57pm, STATIC, random_14, true, LEFT, 2376, 0, 0, 0, 0
18,2018-08-15 05:29:00pm, STATIC, random_14, false, RIGHT, 3171, 0, 0, 0, 0
19,2018-08-15 05:29:04pm, STATIC, random_14, false, RIGHT, 4103, 0, 0, 0, 0
20,2018-08-15 05:29:07pm, STATIC, random_14, false, RIGHT, 3180, 0, 0, 0, 0
21,2018-08-15 05:29:09pm, STATIC, random_14, true, LEFT, 2265, 0, 1, 0, 1
22,2018-08-15 05:29:12pm, STATIC, random_14, true, LEFT, 2220, 0, 0, 0, 0
23,2018-08-15 05:29:14pm, STATIC, random_14, true, LEFT, 2493, 0, 1, 0, 1
24,2018-08-15 05:29:17pm, STATIC, random_14, false, RIGHT, 2225, 1, 0, 0, 1
25,2018-08-15 05:29:19pm, STATIC, random_14, false, RIGHT, 2534, 0, 0, 0, 0
26,2018-08-15 05:29:21pm, STATIC, random_14, false, RIGHT, 2189, 1, 0, 0, 1
27,2018-08-15 05:29:23pm, STATIC, random_14, false, RIGHT, 2223, 1, 1, 1, 1
28,2018-08-15 05:29:26pm, STATIC, random_14, false, RIGHT, 2284, 0, 0, 0, 0
29,2018-08-15 05:29:28pm, STATIC, random_14, false, RIGHT, 2312, 0, 1, 1, 0
30,2018-08-15 05:29:30pm, STATIC, random_14, true, LEFT, 2592, 0, 0, 0, 0
31,2018-08-15 05:29:33pm, STATIC, random_14, true, LEFT, 2264, 0, 0, 0, 0
32,2018-08-15 05:29:41pm, STATIC, random_14, true, LEFT, 8146, 0, 0, 0, 0
33,2018-08-15 05:29:43pm, STATIC, random_14, false, RIGHT, 2478, 0, 1, 1, 0
34,2018-08-15 05:30:03pm, STATIC, random_14, false, RIGHT, 19277, 0, 1, 1, 0
35,2018-08-15 05:30:05pm, STATIC, random_14, false, RIGHT, 2468, 0, 0, 0, 0
36,2018-08-15 05:30:07pm, STATIC, random_14, false, RIGHT, 2261, 0, 0, 0, 0
37,2018-08-15 05:30:10pm, STATIC, random_14, false, RIGHT, 2205, 1, 0, 0, 1
38,2018-08-15 05:30:12pm, STATIC, random_14, false, RIGHT, 2262, 1, 0, 0, 1
39,2018-08-15 05:30:14pm, STATIC, random_14, false, RIGHT, 2448, 0, 1, 1, 0
40,2018-08-15 05:30:17pm, STATIC, random_14, false, RIGHT, 2223, 0, 0, 0, 0
41,2018-08-15 05:30:19pm, STATIC, random_14, true, LEFT, 2289, 1, 0, 1, 0
42,2018-08-15 05:30:21pm, STATIC, random_14, true, LEFT, 2503, 0, 0, 0, 0
43,2018-08-15 05:30:24pm, STATIC, random_14, true, LEFT, 2704, 1, 0, 1, 0
44,2018-08-15 05:30:27pm, STATIC, random_14, true, LEFT, 2232, 0, 0, 0, 0
45,2018-08-15 05:30:29pm, STATIC, random_14, true, LEFT, 2465, 0, 0, 0, 0
46,2018-08-15 05:30:31pm, STATIC, random_14, true, LEFT, 2231, 1, 1, 1, 1
47,2018-08-15 05:30:33pm, STATIC, random_14, false, RIGHT, 2407, 0, 0, 0, 0
48,2018-08-15 05:30:36pm, STATIC, random_14, false, RIGHT, 2184, 1, 0, 0, 1
49,2018-08-15 05:30:38pm, STATIC, random_14, false, RIGHT, 2298, 1, 0, 0, 1
50,2018-08-15 05:30:41pm, STATIC, random_14, false, RIGHT, 2912, 0, 1, 1, 0
51,2018-08-15 05:30:43pm, STATIC, random_14, true, LEFT, 2263, 1, 1, 1, 1
52,2018-08-15 05:30:46pm, STATIC, random_14, true, LEFT, 2281, 0, 1, 0, 1
53,2018-08-15 05:30:48pm, STATIC, random_14, true, LEFT, 2320, 1, 0, 1, 0
54,2018-08-15 05:30:50pm, STATIC, random_14, false, RIGHT, 2487, 0, 0, 0, 0
55,2018-08-15 05:30:52pm, STATIC, random_14, false, RIGHT, 2200, 1, 0, 0, 1
56,2018-08-15 05:30:56pm, STATIC, random_14, true, LEFT, 3209, 0, 0, 0, 0
57,2018-08-15 05:30:58pm, STATIC, random_14, false, RIGHT, 2261, 0, 1, 1, 0
58,2018-08-15 05:31:00pm, STATIC, random_14, false, RIGHT, 2242, 0, 0, 0, 0
59,2018-08-15 05:31:02pm, STATIC, random_14, false, RIGHT, 2409, 1, 0, 0, 1
60,2018-08-15 05:31:05pm, STATIC, random_14, false, RIGHT, 2368, 0, 0, 0, 0
61,2018-08-15 05:31:07pm, STATIC, random_14, true, LEFT, 2579, 1, 0, 1, 0
62,2018-08-15 05:31:10pm, STATIC, random_14, true, LEFT, 2285, 1, 0, 1, 0
63,2018-08-15 05:31:12pm, STATIC, random_14, true, LEFT, 2284, 0, 0, 0, 0
64,2018-08-15 05:31:14pm, STATIC, random_14, true, LEFT, 2199, 0, 0, 0, 0
65,2018-08-15 05:31:17pm, STATIC, random_14, true, LEFT, 2291, 0, 0, 0, 0
66,2018-08-15 05:31:19pm, STATIC, random_14, true, LEFT, 2272, 1, 0, 1, 0
67,2018-08-15 05:31:21pm, STATIC, random_14, true, LEFT, 2208, 0, 0, 0, 0
68,2018-08-15 05:31:23pm, STATIC, random_14, true, LEFT, 2488, 0, 0, 0, 0
69,2018-08-15 05:31:26pm, STATIC, random_14, true, LEFT, 2174, 0, 0, 0, 0
70,2018-08-15 05:31:28pm, STATIC, random_14, false, RIGHT, 2299, 0, 0, 0, 0
71,2018-08-15 05:31:30pm, STATIC, random_14, false, RIGHT, 2201, 1, 0, 0, 1
72,2018-08-15 05:31:34pm, STATIC, random_14, false, RIGHT, 3655, 0, 1, 1, 0
73,2018-08-15 05:31:36pm, STATIC, random_14, true, LEFT, 2240, 1, 0, 1, 0
74,2018-08-15 05:31:39pm, STATIC, random_14, true, LEFT, 2584, 0, 0, 0, 0
75,2018-08-15 05:31:41pm, STATIC, random_14, false, RIGHT, 2305, 0, 0, 0, 0
76,2018-08-15 05:31:43pm, STATIC, random_14, false, RIGHT, 2198, 0, 1, 1, 0
77,2018-08-15 05:31:46pm, STATIC, random_14, true, LEFT, 2201, 0, 0, 0, 0
78,2018-08-15 05:31:47pm, STATIC, random_14, true, LEFT, 2257, 0, 0, 0, 0
79,2018-08-15 05:31:50pm, STATIC, random_14, true, LEFT, 2329, 0, 1, 0, 1
80,2018-08-15 05:31:52pm, STATIC, random_14, true, LEFT, 2199, 1, 1, 1, 1
81,2018-08-15 05:31:54pm, STATIC, random_14, true, LEFT, 2370, 0, 1, 0, 1
82,2018-08-15 05:31:57pm, STATIC, random_14, true, LEFT, 2244, 0, 1, 0, 1
83,2018-08-15 05:31:59pm, STATIC, random_14, false, RIGHT, 2200, 0, 0, 0, 0
84,2018-08-15 05:32:01pm, STATIC, random_14, false, RIGHT, 2433, 1, 1, 1, 1
85,2018-08-15 05:32:04pm, STATIC, random_14, false, RIGHT, 2324, 0, 0, 0, 0
86,2018-08-15 05:32:06pm, STATIC, random_14, false, RIGHT, 2252, 0, 0, 0, 0
87,2018-08-15 05:32:08pm, STATIC, random_14, false, RIGHT, 2255, 0, 0, 0, 0
88,2018-08-15 05:32:10pm, STATIC, random_14, true, LEFT, 2386, 0, 0, 0, 0
89,2018-08-15 05:32:13pm, STATIC, random_14, true, LEFT, 2266, 0, 0, 0, 0
90,2018-08-15 05:32:15pm, STATIC, random_14, true, LEFT, 2245, 1, 0, 1, 0
91,2018-08-15 05:32:17pm, STATIC, random_14, true, LEFT, 2424, 1, 0, 1, 0
92,2018-08-15 05:32:20pm, STATIC, random_14, true, LEFT, 2561, 0, 0, 0, 0
93,2018-08-15 05:32:23pm, STATIC, random_14, false, RIGHT, 2382, 0, 0, 0, 0
94,2018-08-15 05:32:25pm, STATIC, random_14, true, LEFT, 2258, 0, 1, 0, 1
95,2018-08-15 05:32:27pm, STATIC, random_14, true, LEFT, 2231, 0, 0, 0, 0
96,2018-08-15 05:32:29pm, STATIC, random_14, false, RIGHT, 2466, 1, 0, 0, 1
97,2018-08-15 05:32:32pm, STATIC, random_14, false, RIGHT, 2279, 0, 0, 0, 0
98,2018-08-15 05:32:34pm, STATIC, random_14, false, RIGHT, 2252, 0, 0, 0, 0
99,2018-08-15 05:32:36pm, STATIC, random_14, false, RIGHT, 2220, 0, 0, 0, 0
