[{"RT":2704,"time": "2018-08-15 03:33:07pm", "schedule_type": "STATIC", "schedule_name": "random_14", "is_biased_choice":true,"side_choice": "LEFT", "trial_number":0,"observed_reward":0,"unobserved_reward":0},{"RT":3384,"time": "2018-08-15 03:33:11pm", "schedule_type": "STATIC", "schedule_name": "random_14", "is_biased_choice":false,"side_choice": "RIGHT", "trial_number":1,"observed_reward":0,"unobserved_reward":0},{"RT":2673,"time": "2018-08-15 03:33:13pm", "schedule_type": "STATIC", "schedule_name": "random_14", "is_biased_choice":false,"side_choice": "RIGHT", "trial_number":2,"observed_reward":0,"unobserved_reward":1},{"RT":2271,"time": "2018-08-15 03:33:16pm", "schedule_type": "STATIC", "schedule_name": "random_14", "is_biased_choice":false,"side_choice": "RIGHT", "trial_number":3,"observed_reward":0,"unobserved_reward":1},{"RT":2727,"time": "2018-08-15 03:33:18pm", "schedule_type": "STATIC", "schedule_name": "random_14", "is_biased_choice":false,"side_choice": "RIGHT", "trial_number":4,"observed_reward":0,"unobserved_reward":0},{"RT":2368,"time": "2018-08-15 03:33:21pm", "schedule_type": "STATIC", "schedule_name": "random_14", "is_biased_choice":true,"side_choice": "LEFT", "trial_number":5,"observed_reward":0,"unobserved_reward":0},{"RT":2592,"time": "2018-08-15 03:33:23pm", "schedule_type": "STATIC", "schedule_name": "random_14", "is_biased_choice":true,"side_choice": "LEFT", "trial_number":6,"observed_reward":0,"unobserved_reward":0},{"RT":2392,"time": "2018-08-15 03:33:26pm", "schedule_type": "STATIC", "schedule_name": "random_14", "is_biased_choice":false,"side_choice": "RIGHT", "trial_number":7,"observed_reward":0,"unobserved_reward":0},{"RT":2376,"time": "2018-08-15 03:33:28pm", "schedule_type": "STATIC", "schedule_name": "random_14", "is_biased_choice":true,"side_choice": "LEFT", "trial_number":8,"observed_reward":0,"unobserved_reward":0},{"RT":2416,"time": "2018-08-15 03:33:31pm", "schedule_type": "STATIC", "schedule_name": "random_14", "is_biased_choice":false,"side_choice": "RIGHT", "trial_number":9,"observed_reward":1,"unobserved_reward":0},{"RT":2368,"time": "2018-08-15 03:33:33pm", "schedule_type": "STATIC", "schedule_name": "random_14", "is_biased_choice":false,"side_choice": "RIGHT", "trial_number":10,"observed_reward":0,"unobserved_reward":0},{"RT":2144,"time": "2018-08-15 03:33:35pm", "schedule_type": "STATIC", "schedule_name": "random_14", "is_biased_choice":false,"side_choice": "RIGHT", "trial_number":11,"observed_reward":1,"unobserved_reward":1},{"RT":2295,"time": "2018-08-15 03:33:37pm", "schedule_type": "STATIC", "schedule_name": "random_14", "is_biased_choice":false,"side_choice": "RIGHT", "trial_number":12,"observed_reward":1,"unobserved_reward":0},{"RT":2184,"time": "2018-08-15 03:33:40pm", "schedule_type": "STATIC", "schedule_name": "random_14", "is_biased_choice":false,"side_choice": "RIGHT", "trial_number":13,"observed_reward":0,"unobserved_reward":0},{"RT":2200,"time": "2018-08-15 03:33:42pm", "schedule_type": "STATIC", "schedule_name": "random_14", "is_biased_choice":false,"side_choice": "RIGHT", "trial_number":14,"observed_reward":0,"unobserved_reward":0},{"RT":2128,"time": "2018-08-15 03:33:44pm", "schedule_type": "STATIC", "schedule_name": "random_14", "is_biased_choice":false,"side_choice": "RIGHT", "trial_number":15,"observed_reward":0,"unobserved_reward":0},{"RT":2080,"time": "2018-08-15 03:33:46pm", "schedule_type": "STATIC", "schedule_name": "random_14", "is_biased_choice":false,"side_choice": "RIGHT", "trial_number":16,"observed_reward":0,"unobserved_reward":0},{"RT":2161,"time": "2018-08-15 03:33:48pm", "schedule_type": "STATIC", "schedule_name": "random_14", "is_biased_choice":false,"side_choice": "RIGHT", "trial_number":17,"observed_reward":0,"unobserved_reward":0},{"RT":2135,"time": "2018-08-15 03:33:50pm", "schedule_type": "STATIC", "schedule_name": "random_14", "is_biased_choice":false,"side_choice": "RIGHT", "trial_number":18,"observed_reward":0,"unobserved_reward":0},{"RT":2112,"time": "2018-08-15 03:33:52pm", "schedule_type": "STATIC", "schedule_name": "random_14", "is_biased_choice":false,"side_choice": "RIGHT", "trial_number":19,"observed_reward":0,"unobserved_reward":0},{"RT":2168,"time": "2018-08-15 03:33:55pm", "schedule_type": "STATIC", "schedule_name": "random_14", "is_biased_choice":false,"side_choice": "RIGHT", "trial_number":20,"observed_reward":0,"unobserved_reward":0},{"RT":2095,"time": "2018-08-15 03:33:57pm", "schedule_type": "STATIC", "schedule_name": "random_14", "is_biased_choice":false,"side_choice": "RIGHT", "trial_number":21,"observed_reward":1,"unobserved_reward":0},{"RT":2113,"time": "2018-08-15 03:33:59pm", "schedule_type": "STATIC", "schedule_name": "random_14", "is_biased_choice":false,"side_choice": "RIGHT", "trial_number":22,"observed_reward":0,"unobserved_reward":0},{"RT":2631,"time": "2018-08-15 03:34:01pm", "schedule_type": "STATIC", "schedule_name": "random_14", "is_biased_choice":false,"side_choice": "RIGHT", "trial_number":23,"observed_reward":1,"unobserved_reward":0},{"RT":2167,"time": "2018-08-15 03:34:04pm", "schedule_type": "STATIC", "schedule_name": "random_14", "is_biased_choice":false,"side_choice": "RIGHT", "trial_number":24,"observed_reward":1,"unobserved_reward":0},{"RT":2290,"time": "2018-08-15 03:34:06pm", "schedule_type": "STATIC", "schedule_name": "random_14", "is_biased_choice":false,"side_choice": "RIGHT", "trial_number":25,"observed_reward":0,"unobserved_reward":0},{"RT":2152,"time": "2018-08-15 03:34:08pm", "schedule_type": "STATIC", "schedule_name": "random_14", "is_biased_choice":false,"side_choice": "RIGHT", "trial_number":26,"observed_reward":1,"unobserved_reward":0},{"RT":2256,"time": "2018-08-15 03:34:10pm", "schedule_type": "STATIC", "schedule_name": "random_14", "is_biased_choice":true,"side_choice": "LEFT", "trial_number":27,"observed_reward":1,"unobserved_reward":1},{"RT":2215,"time": "2018-08-15 03:34:13pm", "schedule_type": "STATIC", "schedule_name": "random_14", "is_biased_choice":false,"side_choice": "RIGHT", "trial_number":28,"observed_reward":0,"unobserved_reward":0},{"RT":2384,"time": "2018-08-15 03:34:15pm", "schedule_type": "STATIC", "schedule_name": "random_14", "is_biased_choice":false,"side_choice": "RIGHT", "trial_number":29,"observed_reward":0,"unobserved_reward":1},{"RT":3808,"time": "2018-08-15 03:34:19pm", "schedule_type": "STATIC", "schedule_name": "random_14", "is_biased_choice":true,"side_choice": "LEFT", "trial_number":30,"observed_reward":0,"unobserved_reward":0},{"RT":2505,"time": "2018-08-15 03:34:21pm", "schedule_type": "STATIC", "schedule_name": "random_14", "is_biased_choice":false,"side_choice": "RIGHT", "trial_number":31,"observed_reward":0,"unobserved_reward":0},{"RT":2592,"time": "2018-08-15 03:34:24pm", "schedule_type": "STATIC", "schedule_name": "random_14", "is_biased_choice":true,"side_choice": "LEFT", "trial_number":32,"observed_reward":0,"unobserved_reward":0},{"RT":2615,"time": "2018-08-15 03:34:26pm", "schedule_type": "STATIC", "schedule_name": "random_14", "is_biased_choice":false,"side_choice": "RIGHT", "trial_number":33,"observed_reward":0,"unobserved_reward":1},{"RT":2353,"time": "2018-08-15 03:34:29pm", "schedule_type": "STATIC", "schedule_name": "random_14", "is_biased_choice":true,"side_choice": "LEFT", "trial_number":34,"observed_reward":1,"unobserved_reward":0},{"RT":2192,"time": "2018-08-15 03:34:31pm", "schedule_type": "STATIC", "schedule_name": "random_14", "is_biased_choice":true,"side_choice": "LEFT", "trial_number":35,"observed_reward":0,"unobserved_reward":0},{"RT":2158,"time": "2018-08-15 03:34:33pm", "schedule_type": "STATIC", "schedule_name": "random_14", "is_biased_choice":true,"side_choice": "LEFT", "trial_number":36,"observed_reward":0,"unobserved_reward":0},{"RT":2280,"time": "2018-08-15 03:34:35pm", "schedule_type": "STATIC", "schedule_name": "random_14", "is_biased_choice":true,"side_choice": "LEFT", "trial_number":37,"observed_reward":0,"unobserved_reward":1},{"RT":2153,"time": "2018-08-15 03:34:38pm", "schedule_type": "STATIC", "schedule_name": "random_14", "is_biased_choice":true,"side_choice": "LEFT", "trial_number":38,"observed_reward":0,"unobserved_reward":1},{"RT":2088,"time": "2018-08-15 03:34:40pm", "schedule_type": "STATIC", "schedule_name": "random_14", "is_biased_choice":false,"side_choice": "RIGHT", "trial_number":39,"observed_reward":0,"unobserved_reward":1},{"RT":2224,"time": "2018-08-15 03:34:42pm", "schedule_type": "STATIC", "schedule_name": "random_14", "is_biased_choice":true,"side_choice": "LEFT", "trial_number":40,"observed_reward":0,"unobserved_reward":0},{"RT":2327,"time": "2018-08-15 03:34:44pm", "schedule_type": "STATIC", "schedule_name": "random_14", "is_biased_choice":true,"side_choice": "LEFT", "trial_number":41,"observed_reward":1,"unobserved_reward":0},{"RT":2104,"time": "2018-08-15 03:34:46pm", "schedule_type": "STATIC", "schedule_name": "random_14", "is_biased_choice":true,"side_choice": "LEFT", "trial_number":42,"observed_reward":0,"unobserved_reward":0},{"RT":2200,"time": "2018-08-15 03:34:49pm", "schedule_type": "STATIC", "schedule_name": "random_14", "is_biased_choice":true,"side_choice": "LEFT", "trial_number":43,"observed_reward":1,"unobserved_reward":0},{"RT":2192,"time": "2018-08-15 03:34:51pm", "schedule_type": "STATIC", "schedule_name": "random_14", "is_biased_choice":true,"side_choice": "LEFT", "trial_number":44,"observed_reward":0,"unobserved_reward":0},{"RT":2344,"time": "2018-08-15 03:34:53pm", "schedule_type": "STATIC", "schedule_name": "random_14", "is_biased_choice":true,"side_choice": "LEFT", "trial_number":45,"observed_reward":0,"unobserved_reward":0},{"RT":2152,"time": "2018-08-15 03:34:55pm", "schedule_type": "STATIC", "schedule_name": "random_14", "is_biased_choice":true,"side_choice": "LEFT", "trial_number":46,"observed_reward":1,"unobserved_reward":1},{"RT":2128,"time": "2018-08-15 03:34:57pm", "schedule_type": "STATIC", "schedule_name": "random_14", "is_biased_choice":true,"side_choice": "LEFT", "trial_number":47,"observed_reward":0,"unobserved_reward":0},{"RT":2481,"time": "2018-08-15 03:35:00pm", "schedule_type": "STATIC", "schedule_name": "random_14", "is_biased_choice":true,"side_choice": "LEFT", "trial_number":48,"observed_reward":0,"unobserved_reward":1},{"RT":2336,"time": "2018-08-15 03:35:02pm", "schedule_type": "STATIC", "schedule_name": "random_14", "is_biased_choice":true,"side_choice": "LEFT", "trial_number":49,"observed_reward":0,"unobserved_reward":1},{"RT":2591,"time": "2018-08-15 03:35:05pm", "schedule_type": "STATIC", "schedule_name": "random_14", "is_biased_choice":false,"side_choice": "RIGHT", "trial_number":50,"observed_reward":0,"unobserved_reward":1},{"RT":2288,"time": "2018-08-15 03:35:07pm", "schedule_type": "STATIC", "schedule_name": "random_14", "is_biased_choice":false,"side_choice": "RIGHT", "trial_number":51,"observed_reward":1,"unobserved_reward":1},{"RT":2376,"time": "2018-08-15 03:35:09pm", "schedule_type": "STATIC", "schedule_name": "random_14", "is_biased_choice":false,"side_choice": "RIGHT", "trial_number":52,"observed_reward":1,"unobserved_reward":0},{"RT":2088,"time": "2018-08-15 03:35:11pm", "schedule_type": "STATIC", "schedule_name": "random_14", "is_biased_choice":false,"side_choice": "RIGHT", "trial_number":53,"observed_reward":0,"unobserved_reward":1},{"RT":2136,"time": "2018-08-15 03:35:14pm", "schedule_type": "STATIC", "schedule_name": "random_14", "is_biased_choice":false,"side_choice": "RIGHT", "trial_number":54,"observed_reward":0,"unobserved_reward":0},{"RT":2072,"time": "2018-08-15 03:35:16pm", "schedule_type": "STATIC", "schedule_name": "random_14", "is_biased_choice":false,"side_choice": "RIGHT", "trial_number":55,"observed_reward":1,"unobserved_reward":0},{"RT":2327,"time": "2018-08-15 03:35:18pm", "schedule_type": "STATIC", "schedule_name": "random_14", "is_biased_choice":false,"side_choice": "RIGHT", "trial_number":56,"observed_reward":0,"unobserved_reward":0},{"RT":2176,"time": "2018-08-15 03:35:20pm", "schedule_type": "STATIC", "schedule_name": "random_14", "is_biased_choice":false,"side_choice": "RIGHT", "trial_number":57,"observed_reward":0,"unobserved_reward":1},{"RT":2144,"time": "2018-08-15 03:35:22pm", "schedule_type": "STATIC", "schedule_name": "random_14", "is_biased_choice":false,"side_choice": "RIGHT", "trial_number":58,"observed_reward":0,"unobserved_reward":0},{"RT":2792,"time": "2018-08-15 03:35:25pm", "schedule_type": "STATIC", "schedule_name": "random_14", "is_biased_choice":false,"side_choice": "RIGHT", "trial_number":59,"observed_reward":1,"unobserved_reward":0},{"RT":6735,"time": "2018-08-15 03:35:32pm", "schedule_type": "STATIC", "schedule_name": "random_14", "is_biased_choice":true,"side_choice": "LEFT", "trial_number":60,"observed_reward":0,"unobserved_reward":0},{"RT":2193,"time": "2018-08-15 03:35:34pm", "schedule_type": "STATIC", "schedule_name": "random_14", "is_biased_choice":true,"side_choice": "LEFT", "trial_number":61,"observed_reward":1,"unobserved_reward":0},{"RT":2360,"time": "2018-08-15 03:35:36pm", "schedule_type": "STATIC", "schedule_name": "random_14", "is_biased_choice":true,"side_choice": "LEFT", "trial_number":62,"observed_reward":1,"unobserved_reward":0},{"RT":2167,"time": "2018-08-15 03:35:39pm", "schedule_type": "STATIC", "schedule_name": "random_14", "is_biased_choice":true,"side_choice": "LEFT", "trial_number":63,"observed_reward":0,"unobserved_reward":0},{"RT":2176,"time": "2018-08-15 03:35:41pm", "schedule_type": "STATIC", "schedule_name": "random_14", "is_biased_choice":true,"side_choice": "LEFT", "trial_number":64,"observed_reward":0,"unobserved_reward":0},{"RT":2392,"time": "2018-08-15 03:35:43pm", "schedule_type": "STATIC", "schedule_name": "random_14", "is_biased_choice":true,"side_choice": "LEFT", "trial_number":65,"observed_reward":0,"unobserved_reward":0},{"RT":2312,"time": "2018-08-15 03:35:45pm", "schedule_type": "STATIC", "schedule_name": "random_14", "is_biased_choice":true,"side_choice": "LEFT", "trial_number":66,"observed_reward":1,"unobserved_reward":0},{"RT":2416,"time": "2018-08-15 03:35:48pm", "schedule_type": "STATIC", "schedule_name": "random_14", "is_biased_choice":true,"side_choice": "LEFT", "trial_number":67,"observed_reward":0,"unobserved_reward":0},{"RT":2247,"time": "2018-08-15 03:35:50pm", "schedule_type": "STATIC", "schedule_name": "random_14", "is_biased_choice":true,"side_choice": "LEFT", "trial_number":68,"observed_reward":0,"unobserved_reward":0},{"RT":2313,"time": "2018-08-15 03:35:52pm", "schedule_type": "STATIC", "schedule_name": "random_14", "is_biased_choice":true,"side_choice": "LEFT", "trial_number":69,"observed_reward":0,"unobserved_reward":0},{"RT":2432,"time": "2018-08-15 03:35:55pm", "schedule_type": "STATIC", "schedule_name": "random_14", "is_biased_choice":true,"side_choice": "LEFT", "trial_number":70,"observed_reward":0,"unobserved_reward":0},{"RT":13736,"time": "2018-08-15 03:36:09pm", "schedule_type": "STATIC", "schedule_name": "random_14", "is_biased_choice":false,"side_choice": "RIGHT", "trial_number":71,"observed_reward":1,"unobserved_reward":0},{"RT":2143,"time": "2018-08-15 03:36:11pm", "schedule_type": "STATIC", "schedule_name": "random_14", "is_biased_choice":false,"side_choice": "RIGHT", "trial_number":72,"observed_reward":0,"unobserved_reward":1},{"RT":2432,"time": "2018-08-15 03:36:13pm", "schedule_type": "STATIC", "schedule_name": "random_14", "is_biased_choice":false,"side_choice": "RIGHT", "trial_number":73,"observed_reward":0,"unobserved_reward":1},{"RT":2376,"time": "2018-08-15 03:36:16pm", "schedule_type": "STATIC", "schedule_name": "random_14", "is_biased_choice":false,"side_choice": "RIGHT", "trial_number":74,"observed_reward":0,"unobserved_reward":0},{"RT":2128,"time": "2018-08-15 03:36:18pm", "schedule_type": "STATIC", "schedule_name": "random_14", "is_biased_choice":false,"side_choice": "RIGHT", "trial_number":75,"observed_reward":0,"unobserved_reward":0},{"RT":2144,"time": "2018-08-15 03:36:20pm", "schedule_type": "STATIC", "schedule_name": "random_14", "is_biased_choice":false,"side_choice": "RIGHT", "trial_number":76,"observed_reward":0,"unobserved_reward":1},{"RT":2168,"time": "2018-08-15 03:36:22pm", "schedule_type": "STATIC", "schedule_name": "random_14", "is_biased_choice":false,"side_choice": "RIGHT", "trial_number":77,"observed_reward":0,"unobserved_reward":0},{"RT":2071,"time": "2018-08-15 03:36:24pm", "schedule_type": "STATIC", "schedule_name": "random_14", "is_biased_choice":false,"side_choice": "RIGHT", "trial_number":78,"observed_reward":0,"unobserved_reward":0},{"RT":2114,"time": "2018-08-15 03:36:26pm", "schedule_type": "STATIC", "schedule_name": "random_14", "is_biased_choice":false,"side_choice": "RIGHT", "trial_number":79,"observed_reward":1,"unobserved_reward":0},{"RT":2568,"time": "2018-08-15 03:36:29pm", "schedule_type": "STATIC", "schedule_name": "random_14", "is_biased_choice":false,"side_choice": "RIGHT", "trial_number":80,"observed_reward":1,"unobserved_reward":1},{"RT":2376,"time": "2018-08-15 03:36:31pm", "schedule_type": "STATIC", "schedule_name": "random_14", "is_biased_choice":true,"side_choice": "LEFT", "trial_number":81,"observed_reward":0,"unobserved_reward":1},{"RT":2279,"time": "2018-08-15 03:36:33pm", "schedule_type": "STATIC", "schedule_name": "random_14", "is_biased_choice":true,"side_choice": "LEFT", "trial_number":82,"observed_reward":0,"unobserved_reward":1},{"RT":2663,"time": "2018-08-15 03:36:36pm", "schedule_type": "STATIC", "schedule_name": "random_14", "is_biased_choice":true,"side_choice": "LEFT", "trial_number":83,"observed_reward":0,"unobserved_reward":0},{"RT":2121,"time": "2018-08-15 03:36:38pm", "schedule_type": "STATIC", "schedule_name": "random_14", "is_biased_choice":true,"side_choice": "LEFT", "trial_number":84,"observed_reward":1,"unobserved_reward":1},{"RT":2104,"time": "2018-08-15 03:36:40pm", "schedule_type": "STATIC", "schedule_name": "random_14", "is_biased_choice":true,"side_choice": "LEFT", "trial_number":85,"observed_reward":0,"unobserved_reward":0},{"RT":2103,"time": "2018-08-15 03:36:42pm", "schedule_type": "STATIC", "schedule_name": "random_14", "is_biased_choice":true,"side_choice": "LEFT", "trial_number":86,"observed_reward":0,"unobserved_reward":0},{"RT":2209,"time": "2018-08-15 03:36:45pm", "schedule_type": "STATIC", "schedule_name": "random_14", "is_biased_choice":true,"side_choice": "LEFT", "trial_number":87,"observed_reward":0,"unobserved_reward":0},{"RT":2080,"time": "2018-08-15 03:36:47pm", "schedule_type": "STATIC", "schedule_name": "random_14", "is_biased_choice":true,"side_choice": "LEFT", "trial_number":88,"observed_reward":0,"unobserved_reward":0},{"RT":2136,"time": "2018-08-15 03:36:49pm", "schedule_type": "STATIC", "schedule_name": "random_14", "is_biased_choice":true,"side_choice": "LEFT", "trial_number":89,"observed_reward":0,"unobserved_reward":0},{"RT":2440,"time": "2018-08-15 03:36:51pm", "schedule_type": "STATIC", "schedule_name": "random_14", "is_biased_choice":false,"side_choice": "RIGHT", "trial_number":90,"observed_reward":0,"unobserved_reward":1},{"RT":2158,"time": "2018-08-15 03:36:53pm", "schedule_type": "STATIC", "schedule_name": "random_14", "is_biased_choice":false,"side_choice": "RIGHT", "trial_number":91,"observed_reward":0,"unobserved_reward":1},{"RT":2081,"time": "2018-08-15 03:36:56pm", "schedule_type": "STATIC", "schedule_name": "random_14", "is_biased_choice":false,"side_choice": "RIGHT", "trial_number":92,"observed_reward":0,"unobserved_reward":0},{"RT":2128,"time": "2018-08-15 03:36:58pm", "schedule_type": "STATIC", "schedule_name": "random_14", "is_biased_choice":false,"side_choice": "RIGHT", "trial_number":93,"observed_reward":0,"unobserved_reward":0},{"RT":2135,"time": "2018-08-15 03:37:00pm", "schedule_type": "STATIC", "schedule_name": "random_14", "is_biased_choice":false,"side_choice": "RIGHT", "trial_number":94,"observed_reward":1,"unobserved_reward":0},{"RT":2106,"time": "2018-08-15 03:37:02pm", "schedule_type": "STATIC", "schedule_name": "random_14", "is_biased_choice":false,"side_choice": "RIGHT", "trial_number":95,"observed_reward":0,"unobserved_reward":0},{"RT":2094,"time": "2018-08-15 03:37:04pm", "schedule_type": "STATIC", "schedule_name": "random_14", "is_biased_choice":false,"side_choice": "RIGHT", "trial_number":96,"observed_reward":1,"unobserved_reward":0},{"RT":10361,"time": "2018-08-15 03:37:14pm", "schedule_type": "STATIC", "schedule_name": "random_14", "is_biased_choice":false,"side_choice": "RIGHT", "trial_number":97,"observed_reward":0,"unobserved_reward":0},{"RT":2271,"time": "2018-08-15 03:37:17pm", "schedule_type": "STATIC", "schedule_name": "random_14", "is_biased_choice":false,"side_choice": "RIGHT", "trial_number":98,"observed_reward":0,"unobserved_reward":0},{"RT":2184,"time": "2018-08-15 03:37:20pm", "schedule_type": "STATIC", "schedule_name": "random_14", "is_biased_choice":true,"side_choice": "LEFT", "trial_number":99,"observed_reward":0,"unobserved_reward":0},