[{"RT":2332,"time": "2018-08-15 03:27:02pm", "schedule_type": "STATIC", "schedule_name": "random_14", "is_biased_choice":false,"side_choice": "LEFT", "trial_number":0,"observed_reward":0,"unobserved_reward":0},{"RT":2841,"time": "2018-08-15 03:27:05pm", "schedule_type": "STATIC", "schedule_name": "random_14", "is_biased_choice":true,"side_choice": "RIGHT", "trial_number":1,"observed_reward":0,"unobserved_reward":0},{"RT":2486,"time": "2018-08-15 03:27:07pm", "schedule_type": "STATIC", "schedule_name": "random_14", "is_biased_choice":true,"side_choice": "RIGHT", "trial_number":2,"observed_reward":1,"unobserved_reward":0},{"RT":2638,"time": "2018-08-15 03:27:10pm", "schedule_type": "STATIC", "schedule_name": "random_14", "is_biased_choice":false,"side_choice": "LEFT", "trial_number":3,"observed_reward":0,"unobserved_reward":1},{"RT":2747,"time": "2018-08-15 03:27:13pm", "schedule_type": "STATIC", "schedule_name": "random_14", "is_biased_choice":true,"side_choice": "RIGHT", "trial_number":4,"observed_reward":0,"unobserved_reward":0},{"RT":2804,"time": "2018-08-15 03:27:15pm", "schedule_type": "STATIC", "schedule_name": "random_14", "is_biased_choice":true,"side_choice": "RIGHT", "trial_number":5,"observed_reward":0,"unobserved_reward":0},{"RT":2599,"time": "2018-08-15 03:27:18pm", "schedule_type": "STATIC", "schedule_name": "random_14", "is_biased_choice":true,"side_choice": "RIGHT", "trial_number":6,"observed_reward":0,"unobserved_reward":0},{"RT":2487,"time": "2018-08-15 03:27:20pm", "schedule_type": "STATIC", "schedule_name": "random_14", "is_biased_choice":false,"side_choice": "LEFT", "trial_number":7,"observed_reward":0,"unobserved_reward":0},{"RT":2363,"time": "2018-08-15 03:27:23pm", "schedule_type": "STATIC", "schedule_name": "random_14", "is_biased_choice":false,"side_choice": "LEFT", "trial_number":8,"observed_reward":0,"unobserved_reward":0},{"RT":2533,"time": "2018-08-15 03:27:25pm", "schedule_type": "STATIC", "schedule_name": "random_14", "is_biased_choice":false,"side_choice": "LEFT", "trial_number":9,"observed_reward":1,"unobserved_reward":0},{"RT":2393,"time": "2018-08-15 03:27:28pm", "schedule_type": "STATIC", "schedule_name": "random_14", "is_biased_choice":false,"side_choice": "LEFT", "trial_number":10,"observed_reward":0,"unobserved_reward":0},{"RT":2718,"time": "2018-08-15 03:27:30pm", "schedule_type": "STATIC", "schedule_name": "random_14", "is_biased_choice":false,"side_choice": "LEFT", "trial_number":11,"observed_reward":1,"unobserved_reward":1},{"RT":2478,"time": "2018-08-15 03:27:33pm", "schedule_type": "STATIC", "schedule_name": "random_14", "is_biased_choice":false,"side_choice": "LEFT", "trial_number":12,"observed_reward":1,"unobserved_reward":0},{"RT":7297,"time": "2018-08-15 03:27:40pm", "schedule_type": "STATIC", "schedule_name": "random_14", "is_biased_choice":false,"side_choice": "LEFT", "trial_number":13,"observed_reward":0,"unobserved_reward":0},{"RT":6657,"time": "2018-08-15 03:27:47pm", "schedule_type": "STATIC", "schedule_name": "random_14", "is_biased_choice":false,"side_choice": "LEFT", "trial_number":14,"observed_reward":0,"unobserved_reward":0},{"RT":7630,"time": "2018-08-15 03:27:55pm", "schedule_type": "STATIC", "schedule_name": "random_14", "is_biased_choice":true,"side_choice": "RIGHT", "trial_number":15,"observed_reward":0,"unobserved_reward":0},{"RT":13369,"time": "2018-08-15 03:28:08pm", "schedule_type": "STATIC", "schedule_name": "random_14", "is_biased_choice":false,"side_choice": "LEFT", "trial_number":16,"observed_reward":0,"unobserved_reward":0},{"RT":3372,"time": "2018-08-15 03:28:11pm", "schedule_type": "STATIC", "schedule_name": "random_14", "is_biased_choice":false,"side_choice": "LEFT", "trial_number":17,"observed_reward":0,"unobserved_reward":0},{"RT":6011,"time": "2018-08-15 03:28:17pm", "schedule_type": "STATIC", "schedule_name": "random_14", "is_biased_choice":false,"side_choice": "LEFT", "trial_number":18,"observed_reward":0,"unobserved_reward":0},{"RT":5284,"time": "2018-08-15 03:28:23pm", "schedule_type": "STATIC", "schedule_name": "random_14", "is_biased_choice":true,"side_choice": "RIGHT", "trial_number":19,"observed_reward":0,"unobserved_reward":0},{"RT":2520,"time": "2018-08-15 03:28:25pm", "schedule_type": "STATIC", "schedule_name": "random_14", "is_biased_choice":false,"side_choice": "LEFT", "trial_number":20,"observed_reward":0,"unobserved_reward":0},{"RT":2444,"time": "2018-08-15 03:28:28pm", "schedule_type": "STATIC", "schedule_name": "random_14", "is_biased_choice":false,"side_choice": "LEFT", "trial_number":21,"observed_reward":1,"unobserved_reward":0},{"RT":5359,"time": "2018-08-15 03:28:33pm", "schedule_type": "STATIC", "schedule_name": "random_14", "is_biased_choice":false,"side_choice": "LEFT", "trial_number":22,"observed_reward":0,"unobserved_reward":0},{"RT":3049,"time": "2018-08-15 03:28:36pm", "schedule_type": "STATIC", "schedule_name": "random_14", "is_biased_choice":true,"side_choice": "RIGHT", "trial_number":23,"observed_reward":0,"unobserved_reward":1},{"RT":2898,"time": "2018-08-15 03:28:39pm", "schedule_type": "STATIC", "schedule_name": "random_14", "is_biased_choice":true,"side_choice": "RIGHT", "trial_number":24,"observed_reward":0,"unobserved_reward":1},{"RT":2650,"time": "2018-08-15 03:28:41pm", "schedule_type": "STATIC", "schedule_name": "random_14", "is_biased_choice":true,"side_choice": "RIGHT", "trial_number":25,"observed_reward":0,"unobserved_reward":0},{"RT":2716,"time": "2018-08-15 03:28:44pm", "schedule_type": "STATIC", "schedule_name": "random_14", "is_biased_choice":true,"side_choice": "RIGHT", "trial_number":26,"observed_reward":0,"unobserved_reward":1},{"RT":2384,"time": "2018-08-15 03:28:47pm", "schedule_type": "STATIC", "schedule_name": "random_14", "is_biased_choice":false,"side_choice": "LEFT", "trial_number":27,"observed_reward":1,"unobserved_reward":1},{"RT":2579,"time": "2018-08-15 03:28:49pm", "schedule_type": "STATIC", "schedule_name": "random_14", "is_biased_choice":false,"side_choice": "LEFT", "trial_number":28,"observed_reward":0,"unobserved_reward":0},{"RT":2425,"time": "2018-08-15 03:28:52pm", "schedule_type": "STATIC", "schedule_name": "random_14", "is_biased_choice":false,"side_choice": "LEFT", "trial_number":29,"observed_reward":0,"unobserved_reward":1},{"RT":2647,"time": "2018-08-15 03:28:54pm", "schedule_type": "STATIC", "schedule_name": "random_14", "is_biased_choice":false,"side_choice": "LEFT", "trial_number":30,"observed_reward":0,"unobserved_reward":0},{"RT":3098,"time": "2018-08-15 03:28:57pm", "schedule_type": "STATIC", "schedule_name": "random_14", "is_biased_choice":true,"side_choice": "RIGHT", "trial_number":31,"observed_reward":0,"unobserved_reward":0},{"RT":7437,"time": "2018-08-15 03:29:05pm", "schedule_type": "STATIC", "schedule_name": "random_14", "is_biased_choice":true,"side_choice": "RIGHT", "trial_number":32,"observed_reward":0,"unobserved_reward":0},{"RT":4076,"time": "2018-08-15 03:29:09pm", "schedule_type": "STATIC", "schedule_name": "random_14", "is_biased_choice":true,"side_choice": "RIGHT", "trial_number":33,"observed_reward":1,"unobserved_reward":0},{"RT":3880,"time": "2018-08-15 03:29:14pm", "schedule_type": "STATIC", "schedule_name": "random_14", "is_biased_choice":true,"side_choice": "RIGHT", "trial_number":34,"observed_reward":1,"unobserved_reward":0},{"RT":2755,"time": "2018-08-15 03:29:16pm", "schedule_type": "STATIC", "schedule_name": "random_14", "is_biased_choice":true,"side_choice": "RIGHT", "trial_number":35,"observed_reward":0,"unobserved_reward":0},{"RT":2691,"time": "2018-08-15 03:29:18pm", "schedule_type": "STATIC", "schedule_name": "random_14", "is_biased_choice":false,"side_choice": "LEFT", "trial_number":36,"observed_reward":0,"unobserved_reward":0},{"RT":3057,"time": "2018-08-15 03:29:21pm", "schedule_type": "STATIC", "schedule_name": "random_14", "is_biased_choice":false,"side_choice": "LEFT", "trial_number":37,"observed_reward":1,"unobserved_reward":0},{"RT":2465,"time": "2018-08-15 03:29:24pm", "schedule_type": "STATIC", "schedule_name": "random_14", "is_biased_choice":false,"side_choice": "LEFT", "trial_number":38,"observed_reward":1,"unobserved_reward":0},{"RT":2796,"time": "2018-08-15 03:29:26pm", "schedule_type": "STATIC", "schedule_name": "random_14", "is_biased_choice":true,"side_choice": "RIGHT", "trial_number":39,"observed_reward":1,"unobserved_reward":0},{"RT":2384,"time": "2018-08-15 03:29:29pm", "schedule_type": "STATIC", "schedule_name": "random_14", "is_biased_choice":false,"side_choice": "LEFT", "trial_number":40,"observed_reward":0,"unobserved_reward":0},{"RT":2377,"time": "2018-08-15 03:29:31pm", "schedule_type": "STATIC", "schedule_name": "random_14", "is_biased_choice":true,"side_choice": "RIGHT", "trial_number":41,"observed_reward":1,"unobserved_reward":0},{"RT":2376,"time": "2018-08-15 03:29:34pm", "schedule_type": "STATIC", "schedule_name": "random_14", "is_biased_choice":true,"side_choice": "RIGHT", "trial_number":42,"observed_reward":0,"unobserved_reward":0},{"RT":2404,"time": "2018-08-15 03:29:36pm", "schedule_type": "STATIC", "schedule_name": "random_14", "is_biased_choice":true,"side_choice": "RIGHT", "trial_number":43,"observed_reward":1,"unobserved_reward":0},{"RT":3021,"time": "2018-08-15 03:29:39pm", "schedule_type": "STATIC", "schedule_name": "random_14", "is_biased_choice":false,"side_choice": "LEFT", "trial_number":44,"observed_reward":0,"unobserved_reward":0},{"RT":2342,"time": "2018-08-15 03:29:41pm", "schedule_type": "STATIC", "schedule_name": "random_14", "is_biased_choice":false,"side_choice": "LEFT", "trial_number":45,"observed_reward":0,"unobserved_reward":0},{"RT":2983,"time": "2018-08-15 03:29:44pm", "schedule_type": "STATIC", "schedule_name": "random_14", "is_biased_choice":false,"side_choice": "LEFT", "trial_number":46,"observed_reward":1,"unobserved_reward":1},{"RT":7275,"time": "2018-08-15 03:29:52pm", "schedule_type": "STATIC", "schedule_name": "random_14", "is_biased_choice":false,"side_choice": "LEFT", "trial_number":47,"observed_reward":0,"unobserved_reward":0},{"RT":31977,"time": "2018-08-15 03:30:24pm", "schedule_type": "STATIC", "schedule_name": "random_14", "is_biased_choice":false,"side_choice": "LEFT", "trial_number":48,"observed_reward":1,"unobserved_reward":0},{"RT":2670,"time": "2018-08-15 03:30:26pm", "schedule_type": "STATIC", "schedule_name": "random_14", "is_biased_choice":false,"side_choice": "LEFT", "trial_number":49,"observed_reward":1,"unobserved_reward":0},{"RT":2340,"time": "2018-08-15 03:30:29pm", "schedule_type": "STATIC", "schedule_name": "random_14", "is_biased_choice":false,"side_choice": "LEFT", "trial_number":50,"observed_reward":0,"unobserved_reward":1},{"RT":2178,"time": "2018-08-15 03:30:31pm", "schedule_type": "STATIC", "schedule_name": "random_14", "is_biased_choice":true,"side_choice": "RIGHT", "trial_number":51,"observed_reward":1,"unobserved_reward":1},{"RT":2592,"time": "2018-08-15 03:30:33pm", "schedule_type": "STATIC", "schedule_name": "random_14", "is_biased_choice":true,"side_choice": "RIGHT", "trial_number":52,"observed_reward":0,"unobserved_reward":1},{"RT":2449,"time": "2018-08-15 03:30:36pm", "schedule_type": "STATIC", "schedule_name": "random_14", "is_biased_choice":true,"side_choice": "RIGHT", "trial_number":53,"observed_reward":1,"unobserved_reward":0},{"RT":2346,"time": "2018-08-15 03:30:38pm", "schedule_type": "STATIC", "schedule_name": "random_14", "is_biased_choice":true,"side_choice": "RIGHT", "trial_number":54,"observed_reward":0,"unobserved_reward":0},{"RT":2307,"time": "2018-08-15 03:30:40pm", "schedule_type": "STATIC", "schedule_name": "random_14", "is_biased_choice":false,"side_choice": "LEFT", "trial_number":55,"observed_reward":1,"unobserved_reward":0},{"RT":2358,"time": "2018-08-15 03:30:43pm", "schedule_type": "STATIC", "schedule_name": "random_14", "is_biased_choice":false,"side_choice": "LEFT", "trial_number":56,"observed_reward":0,"unobserved_reward":0},{"RT":2777,"time": "2018-08-15 03:30:46pm", "schedule_type": "STATIC", "schedule_name": "random_14", "is_biased_choice":false,"side_choice": "LEFT", "trial_number":57,"observed_reward":0,"unobserved_reward":1},{"RT":2319,"time": "2018-08-15 03:30:48pm", "schedule_type": "STATIC", "schedule_name": "random_14", "is_biased_choice":true,"side_choice": "RIGHT", "trial_number":58,"observed_reward":0,"unobserved_reward":0},{"RT":2332,"time": "2018-08-15 03:30:50pm", "schedule_type": "STATIC", "schedule_name": "random_14", "is_biased_choice":true,"side_choice": "RIGHT", "trial_number":59,"observed_reward":0,"unobserved_reward":1},{"RT":2394,"time": "2018-08-15 03:30:53pm", "schedule_type": "STATIC", "schedule_name": "random_14", "is_biased_choice":false,"side_choice": "LEFT", "trial_number":60,"observed_reward":0,"unobserved_reward":0},{"RT":2596,"time": "2018-08-15 03:30:55pm", "schedule_type": "STATIC", "schedule_name": "random_14", "is_biased_choice":false,"side_choice": "LEFT", "trial_number":61,"observed_reward":0,"unobserved_reward":1},{"RT":2323,"time": "2018-08-15 03:30:58pm", "schedule_type": "STATIC", "schedule_name": "random_14", "is_biased_choice":false,"side_choice": "LEFT", "trial_number":62,"observed_reward":0,"unobserved_reward":1},{"RT":2458,"time": "2018-08-15 03:31:00pm", "schedule_type": "STATIC", "schedule_name": "random_14", "is_biased_choice":false,"side_choice": "LEFT", "trial_number":63,"observed_reward":0,"unobserved_reward":0},{"RT":2332,"time": "2018-08-15 03:31:02pm", "schedule_type": "STATIC", "schedule_name": "random_14", "is_biased_choice":true,"side_choice": "RIGHT", "trial_number":64,"observed_reward":0,"unobserved_reward":0},{"RT":2320,"time": "2018-08-15 03:31:05pm", "schedule_type": "STATIC", "schedule_name": "random_14", "is_biased_choice":false,"side_choice": "LEFT", "trial_number":65,"observed_reward":0,"unobserved_reward":0},{"RT":2408,"time": "2018-08-15 03:31:07pm", "schedule_type": "STATIC", "schedule_name": "random_14", "is_biased_choice":false,"side_choice": "LEFT", "trial_number":66,"observed_reward":0,"unobserved_reward":1},{"RT":2369,"time": "2018-08-15 03:31:09pm", "schedule_type": "STATIC", "schedule_name": "random_14", "is_biased_choice":true,"side_choice": "RIGHT", "trial_number":67,"observed_reward":0,"unobserved_reward":0},{"RT":2264,"time": "2018-08-15 03:31:12pm", "schedule_type": "STATIC", "schedule_name": "random_14", "is_biased_choice":true,"side_choice": "RIGHT", "trial_number":68,"observed_reward":0,"unobserved_reward":0},{"RT":2374,"time": "2018-08-15 03:31:14pm", "schedule_type": "STATIC", "schedule_name": "random_14", "is_biased_choice":true,"side_choice": "RIGHT", "trial_number":69,"observed_reward":0,"unobserved_reward":0},{"RT":2217,"time": "2018-08-15 03:31:16pm", "schedule_type": "STATIC", "schedule_name": "random_14", "is_biased_choice":true,"side_choice": "RIGHT", "trial_number":70,"observed_reward":0,"unobserved_reward":0},{"RT":2303,"time": "2018-08-15 03:31:19pm", "schedule_type": "STATIC", "schedule_name": "random_14", "is_biased_choice":false,"side_choice": "LEFT", "trial_number":71,"observed_reward":1,"unobserved_reward":0},{"RT":7964,"time": "2018-08-15 03:31:27pm", "schedule_type": "STATIC", "schedule_name": "random_14", "is_biased_choice":false,"side_choice": "LEFT", "trial_number":72,"observed_reward":0,"unobserved_reward":1},{"RT":3665,"time": "2018-08-15 03:31:30pm", "schedule_type": "STATIC", "schedule_name": "random_14", "is_biased_choice":false,"side_choice": "LEFT", "trial_number":73,"observed_reward":0,"unobserved_reward":1},{"RT":2537,"time": "2018-08-15 03:31:33pm", "schedule_type": "STATIC", "schedule_name": "random_14", "is_biased_choice":true,"side_choice": "RIGHT", "trial_number":74,"observed_reward":0,"unobserved_reward":0},{"RT":2483,"time": "2018-08-15 03:31:35pm", "schedule_type": "STATIC", "schedule_name": "random_14", "is_biased_choice":true,"side_choice": "RIGHT", "trial_number":75,"observed_reward":0,"unobserved_reward":0},{"RT":2225,"time": "2018-08-15 03:31:38pm", "schedule_type": "STATIC", "schedule_name": "random_14", "is_biased_choice":true,"side_choice": "RIGHT", "trial_number":76,"observed_reward":1,"unobserved_reward":0},{"RT":2223,"time": "2018-08-15 03:31:40pm", "schedule_type": "STATIC", "schedule_name": "random_14", "is_biased_choice":true,"side_choice": "RIGHT", "trial_number":77,"observed_reward":0,"unobserved_reward":0},{"RT":2365,"time": "2018-08-15 03:31:42pm", "schedule_type": "STATIC", "schedule_name": "random_14", "is_biased_choice":true,"side_choice": "RIGHT", "trial_number":78,"observed_reward":0,"unobserved_reward":0},{"RT":2406,"time": "2018-08-15 03:31:45pm", "schedule_type": "STATIC", "schedule_name": "random_14", "is_biased_choice":false,"side_choice": "LEFT", "trial_number":79,"observed_reward":1,"unobserved_reward":0},{"RT":2316,"time": "2018-08-15 03:31:47pm", "schedule_type": "STATIC", "schedule_name": "random_14", "is_biased_choice":false,"side_choice": "LEFT", "trial_number":80,"observed_reward":1,"unobserved_reward":1},{"RT":2263,"time": "2018-08-15 03:31:49pm", "schedule_type": "STATIC", "schedule_name": "random_14", "is_biased_choice":false,"side_choice": "LEFT", "trial_number":81,"observed_reward":1,"unobserved_reward":0},{"RT":2391,"time": "2018-08-15 03:31:51pm", "schedule_type": "STATIC", "schedule_name": "random_14", "is_biased_choice":false,"side_choice": "LEFT", "trial_number":82,"observed_reward":1,"unobserved_reward":0},{"RT":2330,"time": "2018-08-15 03:31:54pm", "schedule_type": "STATIC", "schedule_name": "random_14", "is_biased_choice":false,"side_choice": "LEFT", "trial_number":83,"observed_reward":0,"unobserved_reward":0},{"RT":2523,"time": "2018-08-15 03:31:56pm", "schedule_type": "STATIC", "schedule_name": "random_14", "is_biased_choice":true,"side_choice": "RIGHT", "trial_number":84,"observed_reward":1,"unobserved_reward":1},{"RT":2509,"time": "2018-08-15 03:31:59pm", "schedule_type": "STATIC", "schedule_name": "random_14", "is_biased_choice":true,"side_choice": "RIGHT", "trial_number":85,"observed_reward":0,"unobserved_reward":0},{"RT":2273,"time": "2018-08-15 03:32:01pm", "schedule_type": "STATIC", "schedule_name": "random_14", "is_biased_choice":true,"side_choice": "RIGHT", "trial_number":86,"observed_reward":0,"unobserved_reward":0},{"RT":2253,"time": "2018-08-15 03:32:03pm", "schedule_type": "STATIC", "schedule_name": "random_14", "is_biased_choice":true,"side_choice": "RIGHT", "trial_number":87,"observed_reward":0,"unobserved_reward":0},{"RT":2309,"time": "2018-08-15 03:32:06pm", "schedule_type": "STATIC", "schedule_name": "random_14", "is_biased_choice":true,"side_choice": "RIGHT", "trial_number":88,"observed_reward":0,"unobserved_reward":0},{"RT":2326,"time": "2018-08-15 03:32:08pm", "schedule_type": "STATIC", "schedule_name": "random_14", "is_biased_choice":false,"side_choice": "LEFT", "trial_number":89,"observed_reward":0,"unobserved_reward":0},{"RT":2287,"time": "2018-08-15 03:32:10pm", "schedule_type": "STATIC", "schedule_name": "random_14", "is_biased_choice":false,"side_choice": "LEFT", "trial_number":90,"observed_reward":0,"unobserved_reward":1},{"RT":2306,"time": "2018-08-15 03:32:13pm", "schedule_type": "STATIC", "schedule_name": "random_14", "is_biased_choice":false,"side_choice": "LEFT", "trial_number":91,"observed_reward":0,"unobserved_reward":1},{"RT":2528,"time": "2018-08-15 03:32:15pm", "schedule_type": "STATIC", "schedule_name": "random_14", "is_biased_choice":false,"side_choice": "LEFT", "trial_number":92,"observed_reward":0,"unobserved_reward":0},{"RT":3257,"time": "2018-08-15 03:32:18pm", "schedule_type": "STATIC", "schedule_name": "random_14", "is_biased_choice":false,"side_choice": "LEFT", "trial_number":93,"observed_reward":0,"unobserved_reward":0},{"RT":2538,"time": "2018-08-15 03:32:21pm", "schedule_type": "STATIC", "schedule_name": "random_14", "is_biased_choice":true,"side_choice": "RIGHT", "trial_number":94,"observed_reward":0,"unobserved_reward":1},{"RT":2137,"time": "2018-08-15 03:32:23pm", "schedule_type": "STATIC", "schedule_name": "random_14", "is_biased_choice":false,"side_choice": "LEFT", "trial_number":95,"observed_reward":0,"unobserved_reward":0},{"RT":2266,"time": "2018-08-15 03:32:25pm", "schedule_type": "STATIC", "schedule_name": "random_14", "is_biased_choice":true,"side_choice": "RIGHT", "trial_number":96,"observed_reward":0,"unobserved_reward":1},{"RT":2451,"time": "2018-08-15 03:32:28pm", "schedule_type": "STATIC", "schedule_name": "random_14", "is_biased_choice":true,"side_choice": "RIGHT", "trial_number":97,"observed_reward":0,"unobserved_reward":0},{"RT":2204,"time": "2018-08-15 03:32:30pm", "schedule_type": "STATIC", "schedule_name": "random_14", "is_biased_choice":false,"side_choice": "LEFT", "trial_number":98,"observed_reward":0,"unobserved_reward":0},