trial_number, time, schedule_type, schedule_name, is_biased_choice, side_choice, RT, observed_reward, unobserved_reward, biased_reward, unbiased_reward
0,2018-08-15 04:03:17pm, STATIC, random_14, true, RIGHT, 30075, 0, 0, 0, 0
1,2018-08-15 04:03:20pm, STATIC, random_14, false, LEFT, 3335, 0, 0, 0, 0
2,2018-08-15 04:03:23pm, STATIC, random_14, false, LEFT, 3001, 0, 1, 1, 0
3,2018-08-15 04:03:26pm, STATIC, random_14, true, RIGHT, 2638, 1, 0, 1, 0
4,2018-08-15 04:03:29pm, STATIC, random_14, true, RIGHT, 2616, 0, 0, 0, 0
5,2018-08-15 04:03:31pm, STATIC, random_14, true, RIGHT, 2535, 0, 0, 0, 0
6,2018-08-15 04:03:34pm, STATIC, random_14, false, LEFT, 2456, 0, 0, 0, 0
7,2018-08-15 04:03:38pm, STATIC, random_14, false, LEFT, 3665, 0, 0, 0, 0
8,2018-08-15 04:03:40pm, STATIC, random_14, true, RIGHT, 2502, 0, 0, 0, 0
9,2018-08-15 04:03:42pm, STATIC, random_14, true, RIGHT, 2770, 0, 1, 0, 1
10,2018-08-15 04:03:46pm, STATIC, random_14, false, LEFT, 3238, 0, 0, 0, 0
11,2018-08-15 04:03:49pm, STATIC, random_14, true, RIGHT, 2775, 1, 1, 1, 1
12,2018-08-15 04:03:51pm, STATIC, random_14, true, RIGHT, 2895, 0, 1, 0, 1
13,2018-08-15 04:03:54pm, STATIC, random_14, false, LEFT, 2768, 0, 0, 0, 0
14,2018-08-15 04:03:58pm, STATIC, random_14, true, RIGHT, 3241, 0, 0, 0, 0
15,2018-08-15 04:04:00pm, STATIC, random_14, true, RIGHT, 2839, 0, 0, 0, 0
16,2018-08-15 04:04:03pm, STATIC, random_14, false, LEFT, 2368, 0, 0, 0, 0
17,2018-08-15 04:04:05pm, STATIC, random_14, true, RIGHT, 2567, 0, 0, 0, 0
18,2018-08-15 04:04:09pm, STATIC, random_14, true, RIGHT, 3264, 0, 0, 0, 0
19,2018-08-15 04:04:11pm, STATIC, random_14, true, RIGHT, 2719, 0, 0, 0, 0
20,2018-08-15 04:04:15pm, STATIC, random_14, true, RIGHT, 3368, 0, 0, 0, 0
21,2018-08-15 04:04:18pm, STATIC, random_14, false, LEFT, 3567, 1, 0, 0, 1
22,2018-08-15 04:04:21pm, STATIC, random_14, false, LEFT, 2553, 0, 0, 0, 0
23,2018-08-15 04:04:23pm, STATIC, random_14, true, RIGHT, 2752, 0, 1, 0, 1
24,2018-08-15 04:04:26pm, STATIC, random_14, false, LEFT, 2520, 1, 0, 0, 1
25,2018-08-15 04:04:28pm, STATIC, random_14, false, LEFT, 2488, 0, 0, 0, 0
26,2018-08-15 04:04:31pm, STATIC, random_14, false, LEFT, 2663, 1, 0, 0, 1
27,2018-08-15 04:04:34pm, STATIC, random_14, false, LEFT, 2658, 1, 1, 1, 1
28,2018-08-15 04:04:36pm, STATIC, random_14, false, LEFT, 2692, 0, 0, 0, 0
29,2018-08-15 04:04:39pm, STATIC, random_14, false, LEFT, 2856, 0, 1, 1, 0
30,2018-08-15 04:04:42pm, STATIC, random_14, false, LEFT, 2808, 0, 0, 0, 0
31,2018-08-15 04:04:45pm, STATIC, random_14, false, LEFT, 2584, 0, 0, 0, 0
32,2018-08-15 04:04:47pm, STATIC, random_14, false, LEFT, 2662, 0, 0, 0, 0
33,2018-08-15 04:04:50pm, STATIC, random_14, true, RIGHT, 2751, 1, 0, 1, 0
34,2018-08-15 04:04:53pm, STATIC, random_14, true, RIGHT, 2747, 1, 0, 1, 0
35,2018-08-15 04:04:55pm, STATIC, random_14, true, RIGHT, 2654, 0, 0, 0, 0
36,2018-08-15 04:04:58pm, STATIC, random_14, false, LEFT, 2806, 0, 0, 0, 0
37,2018-08-15 04:05:01pm, STATIC, random_14, true, RIGHT, 2482, 0, 1, 0, 1
38,2018-08-15 04:05:03pm, STATIC, random_14, false, LEFT, 2566, 1, 0, 0, 1
39,2018-08-15 04:05:06pm, STATIC, random_14, false, LEFT, 2959, 0, 1, 1, 0
40,2018-08-15 04:05:09pm, STATIC, random_14, true, RIGHT, 2431, 0, 0, 0, 0
41,2018-08-15 04:05:11pm, STATIC, random_14, false, LEFT, 2425, 0, 1, 1, 0
42,2018-08-15 04:05:14pm, STATIC, random_14, true, RIGHT, 2671, 0, 0, 0, 0
43,2018-08-15 04:05:16pm, STATIC, random_14, true, RIGHT, 2447, 1, 0, 1, 0
44,2018-08-15 04:05:19pm, STATIC, random_14, true, RIGHT, 3001, 0, 0, 0, 0
45,2018-08-15 04:05:22pm, STATIC, random_14, true, RIGHT, 2440, 0, 0, 0, 0
46,2018-08-15 04:05:24pm, STATIC, random_14, false, LEFT, 2256, 1, 1, 1, 1
47,2018-08-15 04:05:27pm, STATIC, random_14, false, LEFT, 2560, 0, 0, 0, 0
48,2018-08-15 04:05:29pm, STATIC, random_14, true, RIGHT, 2438, 0, 1, 0, 1
49,2018-08-15 04:05:31pm, STATIC, random_14, false, LEFT, 2439, 1, 0, 0, 1
50,2018-08-15 04:05:34pm, STATIC, random_14, false, LEFT, 2537, 0, 1, 1, 0
51,2018-08-15 04:05:37pm, STATIC, random_14, true, RIGHT, 2656, 1, 1, 1, 1
52,2018-08-15 04:05:39pm, STATIC, random_14, true, RIGHT, 2385, 0, 1, 0, 1
53,2018-08-15 04:05:41pm, STATIC, random_14, false, LEFT, 2470, 0, 1, 1, 0
54,2018-08-15 04:05:44pm, STATIC, random_14, true, RIGHT, 2568, 0, 0, 0, 0
55,2018-08-15 04:05:47pm, STATIC, random_14, false, LEFT, 2935, 1, 0, 0, 1
56,2018-08-15 04:05:51pm, STATIC, random_14, false, LEFT, 3815, 0, 0, 0, 0
57,2018-08-15 04:05:53pm, STATIC, random_14, true, RIGHT, 2520, 1, 0, 1, 0
58,2018-08-15 04:05:56pm, STATIC, random_14, true, RIGHT, 2775, 0, 0, 0, 0
59,2018-08-15 04:05:59pm, STATIC, random_14, false, LEFT, 2856, 1, 0, 0, 1
60,2018-08-15 04:06:02pm, STATIC, random_14, false, LEFT, 2584, 0, 0, 0, 0
61,2018-08-15 04:06:05pm, STATIC, random_14, true, RIGHT, 3055, 1, 0, 1, 0
62,2018-08-15 04:06:07pm, STATIC, random_14, false, LEFT, 2752, 0, 1, 1, 0
63,2018-08-15 04:06:10pm, STATIC, random_14, true, RIGHT, 2657, 0, 0, 0, 0
64,2018-08-15 04:06:13pm, STATIC, random_14, false, LEFT, 2942, 0, 0, 0, 0
65,2018-08-15 04:06:16pm, STATIC, random_14, true, RIGHT, 2952, 0, 0, 0, 0
66,2018-08-15 04:06:19pm, STATIC, random_14, false, LEFT, 2752, 0, 1, 1, 0
67,2018-08-15 04:06:21pm, STATIC, random_14, false, LEFT, 2871, 0, 0, 0, 0
68,2018-08-15 04:06:24pm, STATIC, random_14, false, LEFT, 2591, 0, 0, 0, 0
69,2018-08-15 04:06:27pm, STATIC, random_14, false, LEFT, 2417, 0, 0, 0, 0
70,2018-08-15 04:06:29pm, STATIC, random_14, false, LEFT, 2511, 0, 0, 0, 0
71,2018-08-15 04:06:31pm, STATIC, random_14, false, LEFT, 2328, 1, 0, 0, 1
72,2018-08-15 04:06:34pm, STATIC, random_14, false, LEFT, 2808, 0, 1, 1, 0
73,2018-08-15 04:06:37pm, STATIC, random_14, true, RIGHT, 2365, 1, 0, 1, 0
74,2018-08-15 04:06:39pm, STATIC, random_14, true, RIGHT, 2562, 0, 0, 0, 0
75,2018-08-15 04:06:42pm, STATIC, random_14, false, LEFT, 2712, 0, 0, 0, 0
76,2018-08-15 04:06:44pm, STATIC, random_14, true, RIGHT, 2496, 1, 0, 1, 0
77,2018-08-15 04:06:47pm, STATIC, random_14, true, RIGHT, 2991, 0, 0, 0, 0
78,2018-08-15 04:06:50pm, STATIC, random_14, false, LEFT, 2977, 0, 0, 0, 0
79,2018-08-15 04:06:54pm, STATIC, random_14, true, RIGHT, 3535, 0, 1, 0, 1
80,2018-08-15 04:06:56pm, STATIC, random_14, false, LEFT, 2671, 1, 1, 1, 1
81,2018-08-15 04:06:59pm, STATIC, random_14, false, LEFT, 2863, 1, 0, 0, 1
82,2018-08-15 04:07:03pm, STATIC, random_14, false, LEFT, 3736, 1, 0, 0, 1
83,2018-08-15 04:07:07pm, STATIC, random_14, false, LEFT, 3399, 0, 0, 0, 0
84,2018-08-15 04:07:10pm, STATIC, random_14, true, RIGHT, 3208, 1, 1, 1, 1
85,2018-08-15 04:07:12pm, STATIC, random_14, false, LEFT, 2737, 0, 0, 0, 0
86,2018-08-15 04:07:15pm, STATIC, random_14, true, RIGHT, 2527, 0, 0, 0, 0
87,2018-08-15 04:07:18pm, STATIC, random_14, false, LEFT, 2646, 0, 0, 0, 0
88,2018-08-15 04:07:20pm, STATIC, random_14, true, RIGHT, 2592, 0, 0, 0, 0
89,2018-08-15 04:07:23pm, STATIC, random_14, true, RIGHT, 2352, 0, 0, 0, 0
90,2018-08-15 04:07:25pm, STATIC, random_14, false, LEFT, 2480, 0, 1, 1, 0
91,2018-08-15 04:07:28pm, STATIC, random_14, false, LEFT, 2951, 0, 1, 1, 0
92,2018-08-15 04:07:30pm, STATIC, random_14, false, LEFT, 2408, 0, 0, 0, 0
93,2018-08-15 04:07:33pm, STATIC, random_14, false, LEFT, 2776, 0, 0, 0, 0
94,2018-08-15 04:07:36pm, STATIC, random_14, true, RIGHT, 2767, 0, 1, 0, 1
95,2018-08-15 04:07:38pm, STATIC, random_14, true, RIGHT, 2496, 0, 0, 0, 0
96,2018-08-15 04:07:41pm, STATIC, random_14, true, RIGHT, 2424, 0, 1, 0, 1
97,2018-08-15 04:07:44pm, STATIC, random_14, false, LEFT, 2735, 0, 0, 0, 0
98,2018-08-15 04:07:46pm, STATIC, random_14, false, LEFT, 2640, 0, 0, 0, 0
99,2018-08-15 04:07:49pm, STATIC, random_14, true, RIGHT, 2824, 0, 0, 0, 0
