[{"RT":9829,"time": "2018-07-29 03:45:33pm", "schedule_type": "STATIC", "schedule_name": "random_15", "is_biased_choice":false,"side_choice": "LEFT", "trial_number":0,"observed_reward":0,"unobserved_reward":0},{"RT":3521,"time": "2018-07-29 03:45:37pm", "schedule_type": "STATIC", "schedule_name": "random_15", "is_biased_choice":true,"side_choice": "RIGHT", "trial_number":1,"observed_reward":1,"unobserved_reward":0},{"RT":2834,"time": "2018-07-29 03:45:39pm", "schedule_type": "STATIC", "schedule_name": "random_15", "is_biased_choice":true,"side_choice": "RIGHT", "trial_number":2,"observed_reward":0,"unobserved_reward":1},{"RT":2847,"time": "2018-07-29 03:45:42pm", "schedule_type": "STATIC", "schedule_name": "random_15", "is_biased_choice":true,"side_choice": "RIGHT", "trial_number":3,"observed_reward":0,"unobserved_reward":1},{"RT":2756,"time": "2018-07-29 03:45:45pm", "schedule_type": "STATIC", "schedule_name": "random_15", "is_biased_choice":true,"side_choice": "RIGHT", "trial_number":4,"observed_reward":1,"unobserved_reward":0},{"RT":2531,"time": "2018-07-29 03:45:48pm", "schedule_type": "STATIC", "schedule_name": "random_15", "is_biased_choice":true,"side_choice": "RIGHT", "trial_number":5,"observed_reward":1,"unobserved_reward":0},{"RT":2566,"time": "2018-07-29 03:45:50pm", "schedule_type": "STATIC", "schedule_name": "random_15", "is_biased_choice":true,"side_choice": "RIGHT", "trial_number":6,"observed_reward":0,"unobserved_reward":0},{"RT":2531,"time": "2018-07-29 03:45:53pm", "schedule_type": "STATIC", "schedule_name": "random_15", "is_biased_choice":true,"side_choice": "RIGHT", "trial_number":7,"observed_reward":0,"unobserved_reward":0},{"RT":2690,"time": "2018-07-29 03:45:55pm", "schedule_type": "STATIC", "schedule_name": "random_15", "is_biased_choice":true,"side_choice": "RIGHT", "trial_number":8,"observed_reward":1,"unobserved_reward":0},{"RT":2564,"time": "2018-07-29 03:45:58pm", "schedule_type": "STATIC", "schedule_name": "random_15", "is_biased_choice":false,"side_choice": "LEFT", "trial_number":9,"observed_reward":0,"unobserved_reward":0},{"RT":2621,"time": "2018-07-29 03:46:01pm", "schedule_type": "STATIC", "schedule_name": "random_15", "is_biased_choice":false,"side_choice": "LEFT", "trial_number":10,"observed_reward":0,"unobserved_reward":1},{"RT":2475,"time": "2018-07-29 03:46:03pm", "schedule_type": "STATIC", "schedule_name": "random_15", "is_biased_choice":false,"side_choice": "LEFT", "trial_number":11,"observed_reward":0,"unobserved_reward":0},{"RT":2442,"time": "2018-07-29 03:46:06pm", "schedule_type": "STATIC", "schedule_name": "random_15", "is_biased_choice":true,"side_choice": "RIGHT", "trial_number":12,"observed_reward":0,"unobserved_reward":0},{"RT":2486,"time": "2018-07-29 03:46:08pm", "schedule_type": "STATIC", "schedule_name": "random_15", "is_biased_choice":false,"side_choice": "LEFT", "trial_number":13,"observed_reward":0,"unobserved_reward":0},{"RT":2643,"time": "2018-07-29 03:46:11pm", "schedule_type": "STATIC", "schedule_name": "random_15", "is_biased_choice":false,"side_choice": "LEFT", "trial_number":14,"observed_reward":0,"unobserved_reward":0},{"RT":2475,"time": "2018-07-29 03:46:13pm", "schedule_type": "STATIC", "schedule_name": "random_15", "is_biased_choice":true,"side_choice": "RIGHT", "trial_number":15,"observed_reward":0,"unobserved_reward":0},{"RT":2385,"time": "2018-07-29 03:46:15pm", "schedule_type": "STATIC", "schedule_name": "random_15", "is_biased_choice":true,"side_choice": "RIGHT", "trial_number":16,"observed_reward":0,"unobserved_reward":0},{"RT":2340,"time": "2018-07-29 03:46:18pm", "schedule_type": "STATIC", "schedule_name": "random_15", "is_biased_choice":true,"side_choice": "RIGHT", "trial_number":17,"observed_reward":0,"unobserved_reward":0},{"RT":2261,"time": "2018-07-29 03:46:20pm", "schedule_type": "STATIC", "schedule_name": "random_15", "is_biased_choice":true,"side_choice": "RIGHT", "trial_number":18,"observed_reward":0,"unobserved_reward":1},{"RT":2375,"time": "2018-07-29 03:46:22pm", "schedule_type": "STATIC", "schedule_name": "random_15", "is_biased_choice":true,"side_choice": "RIGHT", "trial_number":19,"observed_reward":0,"unobserved_reward":0},{"RT":2339,"time": "2018-07-29 03:46:25pm", "schedule_type": "STATIC", "schedule_name": "random_15", "is_biased_choice":true,"side_choice": "RIGHT", "trial_number":20,"observed_reward":0,"unobserved_reward":0},{"RT":2475,"time": "2018-07-29 03:46:27pm", "schedule_type": "STATIC", "schedule_name": "random_15", "is_biased_choice":false,"side_choice": "LEFT", "trial_number":21,"observed_reward":0,"unobserved_reward":1},{"RT":2374,"time": "2018-07-29 03:46:30pm", "schedule_type": "STATIC", "schedule_name": "random_15", "is_biased_choice":false,"side_choice": "LEFT", "trial_number":22,"observed_reward":0,"unobserved_reward":0},{"RT":2329,"time": "2018-07-29 03:46:32pm", "schedule_type": "STATIC", "schedule_name": "random_15", "is_biased_choice":false,"side_choice": "LEFT", "trial_number":23,"observed_reward":0,"unobserved_reward":0},{"RT":2554,"time": "2018-07-29 03:46:35pm", "schedule_type": "STATIC", "schedule_name": "random_15", "is_biased_choice":false,"side_choice": "LEFT", "trial_number":24,"observed_reward":0,"unobserved_reward":0},{"RT":2351,"time": "2018-07-29 03:46:37pm", "schedule_type": "STATIC", "schedule_name": "random_15", "is_biased_choice":false,"side_choice": "LEFT", "trial_number":25,"observed_reward":0,"unobserved_reward":1},{"RT":2261,"time": "2018-07-29 03:46:39pm", "schedule_type": "STATIC", "schedule_name": "random_15", "is_biased_choice":true,"side_choice": "RIGHT", "trial_number":26,"observed_reward":0,"unobserved_reward":0},{"RT":2329,"time": "2018-07-29 03:46:41pm", "schedule_type": "STATIC", "schedule_name": "random_15", "is_biased_choice":false,"side_choice": "LEFT", "trial_number":27,"observed_reward":1,"unobserved_reward":0},{"RT":2396,"time": "2018-07-29 03:46:44pm", "schedule_type": "STATIC", "schedule_name": "random_15", "is_biased_choice":false,"side_choice": "LEFT", "trial_number":28,"observed_reward":0,"unobserved_reward":0},{"RT":2498,"time": "2018-07-29 03:46:46pm", "schedule_type": "STATIC", "schedule_name": "random_15", "is_biased_choice":false,"side_choice": "LEFT", "trial_number":29,"observed_reward":0,"unobserved_reward":1},{"RT":2598,"time": "2018-07-29 03:46:49pm", "schedule_type": "STATIC", "schedule_name": "random_15", "is_biased_choice":true,"side_choice": "RIGHT", "trial_number":30,"observed_reward":0,"unobserved_reward":1},{"RT":2329,"time": "2018-07-29 03:46:51pm", "schedule_type": "STATIC", "schedule_name": "random_15", "is_biased_choice":true,"side_choice": "RIGHT", "trial_number":31,"observed_reward":0,"unobserved_reward":1},{"RT":2396,"time": "2018-07-29 03:46:54pm", "schedule_type": "STATIC", "schedule_name": "random_15", "is_biased_choice":false,"side_choice": "LEFT", "trial_number":32,"observed_reward":0,"unobserved_reward":0},{"RT":2317,"time": "2018-07-29 03:46:56pm", "schedule_type": "STATIC", "schedule_name": "random_15", "is_biased_choice":false,"side_choice": "LEFT", "trial_number":33,"observed_reward":1,"unobserved_reward":0},{"RT":2454,"time": "2018-07-29 03:46:58pm", "schedule_type": "STATIC", "schedule_name": "random_15", "is_biased_choice":false,"side_choice": "LEFT", "trial_number":34,"observed_reward":0,"unobserved_reward":0},{"RT":2306,"time": "2018-07-29 03:47:01pm", "schedule_type": "STATIC", "schedule_name": "random_15", "is_biased_choice":false,"side_choice": "LEFT", "trial_number":35,"observed_reward":0,"unobserved_reward":0},{"RT":2272,"time": "2018-07-29 03:47:03pm", "schedule_type": "STATIC", "schedule_name": "random_15", "is_biased_choice":false,"side_choice": "LEFT", "trial_number":36,"observed_reward":0,"unobserved_reward":0},{"RT":2284,"time": "2018-07-29 03:47:05pm", "schedule_type": "STATIC", "schedule_name": "random_15", "is_biased_choice":false,"side_choice": "LEFT", "trial_number":37,"observed_reward":1,"unobserved_reward":0},{"RT":2306,"time": "2018-07-29 03:47:08pm", "schedule_type": "STATIC", "schedule_name": "random_15", "is_biased_choice":false,"side_choice": "LEFT", "trial_number":38,"observed_reward":0,"unobserved_reward":1},{"RT":2666,"time": "2018-07-29 03:47:10pm", "schedule_type": "STATIC", "schedule_name": "random_15", "is_biased_choice":false,"side_choice": "LEFT", "trial_number":39,"observed_reward":0,"unobserved_reward":0},{"RT":2273,"time": "2018-07-29 03:47:13pm", "schedule_type": "STATIC", "schedule_name": "random_15", "is_biased_choice":false,"side_choice": "LEFT", "trial_number":40,"observed_reward":1,"unobserved_reward":1},{"RT":2959,"time": "2018-07-29 03:47:16pm", "schedule_type": "STATIC", "schedule_name": "random_15", "is_biased_choice":false,"side_choice": "LEFT", "trial_number":41,"observed_reward":1,"unobserved_reward":1},{"RT":2272,"time": "2018-07-29 03:47:18pm", "schedule_type": "STATIC", "schedule_name": "random_15", "is_biased_choice":false,"side_choice": "LEFT", "trial_number":42,"observed_reward":0,"unobserved_reward":1},{"RT":2217,"time": "2018-07-29 03:47:20pm", "schedule_type": "STATIC", "schedule_name": "random_15", "is_biased_choice":false,"side_choice": "LEFT", "trial_number":43,"observed_reward":1,"unobserved_reward":0},{"RT":2328,"time": "2018-07-29 03:47:22pm", "schedule_type": "STATIC", "schedule_name": "random_15", "is_biased_choice":false,"side_choice": "LEFT", "trial_number":44,"observed_reward":0,"unobserved_reward":1},{"RT":2250,"time": "2018-07-29 03:47:25pm", "schedule_type": "STATIC", "schedule_name": "random_15", "is_biased_choice":false,"side_choice": "LEFT", "trial_number":45,"observed_reward":1,"unobserved_reward":0},{"RT":2262,"time": "2018-07-29 03:47:27pm", "schedule_type": "STATIC", "schedule_name": "random_15", "is_biased_choice":false,"side_choice": "LEFT", "trial_number":46,"observed_reward":0,"unobserved_reward":0},{"RT":2238,"time": "2018-07-29 03:47:29pm", "schedule_type": "STATIC", "schedule_name": "random_15", "is_biased_choice":false,"side_choice": "LEFT", "trial_number":47,"observed_reward":0,"unobserved_reward":0},{"RT":2273,"time": "2018-07-29 03:47:31pm", "schedule_type": "STATIC", "schedule_name": "random_15", "is_biased_choice":false,"side_choice": "LEFT", "trial_number":48,"observed_reward":0,"unobserved_reward":1},{"RT":2239,"time": "2018-07-29 03:47:34pm", "schedule_type": "STATIC", "schedule_name": "random_15", "is_biased_choice":false,"side_choice": "LEFT", "trial_number":49,"observed_reward":0,"unobserved_reward":0},{"RT":2227,"time": "2018-07-29 03:47:36pm", "schedule_type": "STATIC", "schedule_name": "random_15", "is_biased_choice":false,"side_choice": "LEFT", "trial_number":50,"observed_reward":1,"unobserved_reward":0},{"RT":2250,"time": "2018-07-29 03:47:38pm", "schedule_type": "STATIC", "schedule_name": "random_15", "is_biased_choice":false,"side_choice": "LEFT", "trial_number":51,"observed_reward":0,"unobserved_reward":0},{"RT":2239,"time": "2018-07-29 03:47:40pm", "schedule_type": "STATIC", "schedule_name": "random_15", "is_biased_choice":false,"side_choice": "LEFT", "trial_number":52,"observed_reward":0,"unobserved_reward":0},{"RT":2305,"time": "2018-07-29 03:47:43pm", "schedule_type": "STATIC", "schedule_name": "random_15", "is_biased_choice":false,"side_choice": "LEFT", "trial_number":53,"observed_reward":1,"unobserved_reward":0},{"RT":2285,"time": "2018-07-29 03:47:45pm", "schedule_type": "STATIC", "schedule_name": "random_15", "is_biased_choice":false,"side_choice": "LEFT", "trial_number":54,"observed_reward":1,"unobserved_reward":1},{"RT":2239,"time": "2018-07-29 03:47:47pm", "schedule_type": "STATIC", "schedule_name": "random_15", "is_biased_choice":false,"side_choice": "LEFT", "trial_number":55,"observed_reward":0,"unobserved_reward":0},{"RT":2350,"time": "2018-07-29 03:47:50pm", "schedule_type": "STATIC", "schedule_name": "random_15", "is_biased_choice":false,"side_choice": "LEFT", "trial_number":56,"observed_reward":0,"unobserved_reward":0},{"RT":2284,"time": "2018-07-29 03:47:52pm", "schedule_type": "STATIC", "schedule_name": "random_15", "is_biased_choice":false,"side_choice": "LEFT", "trial_number":57,"observed_reward":1,"unobserved_reward":0},{"RT":2307,"time": "2018-07-29 03:47:54pm", "schedule_type": "STATIC", "schedule_name": "random_15", "is_biased_choice":false,"side_choice": "LEFT", "trial_number":58,"observed_reward":0,"unobserved_reward":0},{"RT":2542,"time": "2018-07-29 03:47:57pm", "schedule_type": "STATIC", "schedule_name": "random_15", "is_biased_choice":false,"side_choice": "LEFT", "trial_number":59,"observed_reward":0,"unobserved_reward":1},{"RT":2599,"time": "2018-07-29 03:47:59pm", "schedule_type": "STATIC", "schedule_name": "random_15", "is_biased_choice":false,"side_choice": "LEFT", "trial_number":60,"observed_reward":0,"unobserved_reward":0},{"RT":2272,"time": "2018-07-29 03:48:02pm", "schedule_type": "STATIC", "schedule_name": "random_15", "is_biased_choice":false,"side_choice": "LEFT", "trial_number":61,"observed_reward":1,"unobserved_reward":1},{"RT":2464,"time": "2018-07-29 03:48:04pm", "schedule_type": "STATIC", "schedule_name": "random_15", "is_biased_choice":false,"side_choice": "LEFT", "trial_number":62,"observed_reward":0,"unobserved_reward":0},{"RT":2273,"time": "2018-07-29 03:48:06pm", "schedule_type": "STATIC", "schedule_name": "random_15", "is_biased_choice":false,"side_choice": "LEFT", "trial_number":63,"observed_reward":0,"unobserved_reward":0},{"RT":2250,"time": "2018-07-29 03:48:09pm", "schedule_type": "STATIC", "schedule_name": "random_15", "is_biased_choice":false,"side_choice": "LEFT", "trial_number":64,"observed_reward":0,"unobserved_reward":0},{"RT":2250,"time": "2018-07-29 03:48:11pm", "schedule_type": "STATIC", "schedule_name": "random_15", "is_biased_choice":false,"side_choice": "LEFT", "trial_number":65,"observed_reward":0,"unobserved_reward":0},{"RT":2520,"time": "2018-07-29 03:48:13pm", "schedule_type": "STATIC", "schedule_name": "random_15", "is_biased_choice":false,"side_choice": "LEFT", "trial_number":66,"observed_reward":0,"unobserved_reward":0},{"RT":2632,"time": "2018-07-29 03:48:16pm", "schedule_type": "STATIC", "schedule_name": "random_15", "is_biased_choice":false,"side_choice": "LEFT", "trial_number":67,"observed_reward":0,"unobserved_reward":1},{"RT":2306,"time": "2018-07-29 03:48:18pm", "schedule_type": "STATIC", "schedule_name": "random_15", "is_biased_choice":false,"side_choice": "LEFT", "trial_number":68,"observed_reward":0,"unobserved_reward":0},{"RT":2577,"time": "2018-07-29 03:48:21pm", "schedule_type": "STATIC", "schedule_name": "random_15", "is_biased_choice":false,"side_choice": "LEFT", "trial_number":69,"observed_reward":0,"unobserved_reward":1},{"RT":2464,"time": "2018-07-29 03:48:23pm", "schedule_type": "STATIC", "schedule_name": "random_15", "is_biased_choice":false,"side_choice": "LEFT", "trial_number":70,"observed_reward":1,"unobserved_reward":0},{"RT":2362,"time": "2018-07-29 03:48:26pm", "schedule_type": "STATIC", "schedule_name": "random_15", "is_biased_choice":false,"side_choice": "LEFT", "trial_number":71,"observed_reward":0,"unobserved_reward":0},{"RT":2284,"time": "2018-07-29 03:48:28pm", "schedule_type": "STATIC", "schedule_name": "random_15", "is_biased_choice":false,"side_choice": "LEFT", "trial_number":72,"observed_reward":0,"unobserved_reward":0},{"RT":2351,"time": "2018-07-29 03:48:30pm", "schedule_type": "STATIC", "schedule_name": "random_15", "is_biased_choice":false,"side_choice": "LEFT", "trial_number":73,"observed_reward":0,"unobserved_reward":0},{"RT":2272,"time": "2018-07-29 03:48:33pm", "schedule_type": "STATIC", "schedule_name": "random_15", "is_biased_choice":false,"side_choice": "LEFT", "trial_number":74,"observed_reward":0,"unobserved_reward":0},{"RT":2340,"time": "2018-07-29 03:48:35pm", "schedule_type": "STATIC", "schedule_name": "random_15", "is_biased_choice":false,"side_choice": "LEFT", "trial_number":75,"observed_reward":0,"unobserved_reward":0},{"RT":2296,"time": "2018-07-29 03:48:37pm", "schedule_type": "STATIC", "schedule_name": "random_15", "is_biased_choice":false,"side_choice": "LEFT", "trial_number":76,"observed_reward":1,"unobserved_reward":0},{"RT":2249,"time": "2018-07-29 03:48:39pm", "schedule_type": "STATIC", "schedule_name": "random_15", "is_biased_choice":false,"side_choice": "LEFT", "trial_number":77,"observed_reward":0,"unobserved_reward":1},{"RT":2262,"time": "2018-07-29 03:48:42pm", "schedule_type": "STATIC", "schedule_name": "random_15", "is_biased_choice":false,"side_choice": "LEFT", "trial_number":78,"observed_reward":0,"unobserved_reward":0},{"RT":2408,"time": "2018-07-29 03:48:44pm", "schedule_type": "STATIC", "schedule_name": "random_15", "is_biased_choice":false,"side_choice": "LEFT", "trial_number":79,"observed_reward":0,"unobserved_reward":0},{"RT":2463,"time": "2018-07-29 03:48:47pm", "schedule_type": "STATIC", "schedule_name": "random_15", "is_biased_choice":false,"side_choice": "LEFT", "trial_number":80,"observed_reward":1,"unobserved_reward":0},{"RT":2340,"time": "2018-07-29 03:48:49pm", "schedule_type": "STATIC", "schedule_name": "random_15", "is_biased_choice":false,"side_choice": "LEFT", "trial_number":81,"observed_reward":0,"unobserved_reward":1},{"RT":2464,"time": "2018-07-29 03:48:51pm", "schedule_type": "STATIC", "schedule_name": "random_15", "is_biased_choice":false,"side_choice": "LEFT", "trial_number":82,"observed_reward":0,"unobserved_reward":1},{"RT":2306,"time": "2018-07-29 03:48:54pm", "schedule_type": "STATIC", "schedule_name": "random_15", "is_biased_choice":false,"side_choice": "LEFT", "trial_number":83,"observed_reward":0,"unobserved_reward":0},{"RT":2352,"time": "2018-07-29 03:48:56pm", "schedule_type": "STATIC", "schedule_name": "random_15", "is_biased_choice":false,"side_choice": "LEFT", "trial_number":84,"observed_reward":1,"unobserved_reward":1},{"RT":2351,"time": "2018-07-29 03:48:58pm", "schedule_type": "STATIC", "schedule_name": "random_15", "is_biased_choice":false,"side_choice": "LEFT", "trial_number":85,"observed_reward":0,"unobserved_reward":0},{"RT":2385,"time": "2018-07-29 03:49:01pm", "schedule_type": "STATIC", "schedule_name": "random_15", "is_biased_choice":false,"side_choice": "LEFT", "trial_number":86,"observed_reward":1,"unobserved_reward":0},{"RT":2317,"time": "2018-07-29 03:49:03pm", "schedule_type": "STATIC", "schedule_name": "random_15", "is_biased_choice":false,"side_choice": "LEFT", "trial_number":87,"observed_reward":0,"unobserved_reward":0},{"RT":2442,"time": "2018-07-29 03:49:05pm", "schedule_type": "STATIC", "schedule_name": "random_15", "is_biased_choice":false,"side_choice": "LEFT", "trial_number":88,"observed_reward":0,"unobserved_reward":0},{"RT":2418,"time": "2018-07-29 03:49:08pm", "schedule_type": "STATIC", "schedule_name": "random_15", "is_biased_choice":false,"side_choice": "LEFT", "trial_number":89,"observed_reward":0,"unobserved_reward":0},{"RT":2408,"time": "2018-07-29 03:49:10pm", "schedule_type": "STATIC", "schedule_name": "random_15", "is_biased_choice":false,"side_choice": "LEFT", "trial_number":90,"observed_reward":0,"unobserved_reward":0},{"RT":2374,"time": "2018-07-29 03:49:13pm", "schedule_type": "STATIC", "schedule_name": "random_15", "is_biased_choice":false,"side_choice": "LEFT", "trial_number":91,"observed_reward":0,"unobserved_reward":0},{"RT":2340,"time": "2018-07-29 03:49:15pm", "schedule_type": "STATIC", "schedule_name": "random_15", "is_biased_choice":false,"side_choice": "LEFT", "trial_number":92,"observed_reward":0,"unobserved_reward":1},{"RT":2395,"time": "2018-07-29 03:49:17pm", "schedule_type": "STATIC", "schedule_name": "random_15", "is_biased_choice":false,"side_choice": "LEFT", "trial_number":93,"observed_reward":1,"unobserved_reward":0},{"RT":2285,"time": "2018-07-29 03:49:20pm", "schedule_type": "STATIC", "schedule_name": "random_15", "is_biased_choice":false,"side_choice": "LEFT", "trial_number":94,"observed_reward":1,"unobserved_reward":0},{"RT":2294,"time": "2018-07-29 03:49:22pm", "schedule_type": "STATIC", "schedule_name": "random_15", "is_biased_choice":false,"side_choice": "LEFT", "trial_number":95,"observed_reward":0,"unobserved_reward":0},{"RT":2273,"time": "2018-07-29 03:49:24pm", "schedule_type": "STATIC", "schedule_name": "random_15", "is_biased_choice":false,"side_choice": "LEFT", "trial_number":96,"observed_reward":1,"unobserved_reward":0},{"RT":2306,"time": "2018-07-29 03:49:27pm", "schedule_type": "STATIC", "schedule_name": "random_15", "is_biased_choice":false,"side_choice": "LEFT", "trial_number":97,"observed_reward":0,"unobserved_reward":1},{"RT":2340,"time": "2018-07-29 03:49:29pm", "schedule_type": "STATIC", "schedule_name": "random_15", "is_biased_choice":false,"side_choice": "LEFT", "trial_number":98,"observed_reward":0,"unobserved_reward":0},{"RT":2307,"time": "2018-07-29 03:49:31pm", "schedule_type": "STATIC", "schedule_name": "random_15", "is_biased_choice":false,"side_choice": "LEFT", "trial_number":99,"observed_reward":0,"unobserved_reward":0}]