[{"RT":7873,"time": "2018-07-29 03:46:00pm", "schedule_type": "STATIC", "schedule_name": "random_15", "is_biased_choice":true,"side_choice": "LEFT", "trial_number":0,"observed_reward":0,"unobserved_reward":0},{"RT":4215,"time": "2018-07-29 03:46:04pm", "schedule_type": "STATIC", "schedule_name": "random_15", "is_biased_choice":true,"side_choice": "LEFT", "trial_number":1,"observed_reward":1,"unobserved_reward":0},{"RT":3606,"time": "2018-07-29 03:46:08pm", "schedule_type": "STATIC", "schedule_name": "random_15", "is_biased_choice":true,"side_choice": "LEFT", "trial_number":2,"observed_reward":0,"unobserved_reward":1},{"RT":3079,"time": "2018-07-29 03:46:11pm", "schedule_type": "STATIC", "schedule_name": "random_15", "is_biased_choice":true,"side_choice": "LEFT", "trial_number":3,"observed_reward":0,"unobserved_reward":1},{"RT":2703,"time": "2018-07-29 03:46:14pm", "schedule_type": "STATIC", "schedule_name": "random_15", "is_biased_choice":true,"side_choice": "LEFT", "trial_number":4,"observed_reward":1,"unobserved_reward":0},{"RT":3165,"time": "2018-07-29 03:46:17pm", "schedule_type": "STATIC", "schedule_name": "random_15", "is_biased_choice":true,"side_choice": "LEFT", "trial_number":5,"observed_reward":1,"unobserved_reward":0},{"RT":2778,"time": "2018-07-29 03:46:19pm", "schedule_type": "STATIC", "schedule_name": "random_15", "is_biased_choice":true,"side_choice": "LEFT", "trial_number":6,"observed_reward":0,"unobserved_reward":0},{"RT":2574,"time": "2018-07-29 03:46:22pm", "schedule_type": "STATIC", "schedule_name": "random_15", "is_biased_choice":true,"side_choice": "LEFT", "trial_number":7,"observed_reward":0,"unobserved_reward":0},{"RT":2681,"time": "2018-07-29 03:46:24pm", "schedule_type": "STATIC", "schedule_name": "random_15", "is_biased_choice":true,"side_choice": "LEFT", "trial_number":8,"observed_reward":1,"unobserved_reward":0},{"RT":3084,"time": "2018-07-29 03:46:28pm", "schedule_type": "STATIC", "schedule_name": "random_15", "is_biased_choice":true,"side_choice": "LEFT", "trial_number":9,"observed_reward":0,"unobserved_reward":0},{"RT":2914,"time": "2018-07-29 03:46:30pm", "schedule_type": "STATIC", "schedule_name": "random_15", "is_biased_choice":true,"side_choice": "LEFT", "trial_number":10,"observed_reward":1,"unobserved_reward":0},{"RT":2752,"time": "2018-07-29 03:46:34pm", "schedule_type": "STATIC", "schedule_name": "random_15", "is_biased_choice":true,"side_choice": "LEFT", "trial_number":11,"observed_reward":0,"unobserved_reward":0},{"RT":2601,"time": "2018-07-29 03:46:36pm", "schedule_type": "STATIC", "schedule_name": "random_15", "is_biased_choice":true,"side_choice": "LEFT", "trial_number":12,"observed_reward":0,"unobserved_reward":0},{"RT":2732,"time": "2018-07-29 03:46:39pm", "schedule_type": "STATIC", "schedule_name": "random_15", "is_biased_choice":true,"side_choice": "LEFT", "trial_number":13,"observed_reward":0,"unobserved_reward":0},{"RT":2500,"time": "2018-07-29 03:46:41pm", "schedule_type": "STATIC", "schedule_name": "random_15", "is_biased_choice":true,"side_choice": "LEFT", "trial_number":14,"observed_reward":0,"unobserved_reward":0},{"RT":2501,"time": "2018-07-29 03:46:44pm", "schedule_type": "STATIC", "schedule_name": "random_15", "is_biased_choice":true,"side_choice": "LEFT", "trial_number":15,"observed_reward":0,"unobserved_reward":0},{"RT":2635,"time": "2018-07-29 03:46:47pm", "schedule_type": "STATIC", "schedule_name": "random_15", "is_biased_choice":false,"side_choice": "RIGHT", "trial_number":16,"observed_reward":0,"unobserved_reward":0},{"RT":2581,"time": "2018-07-29 03:46:49pm", "schedule_type": "STATIC", "schedule_name": "random_15", "is_biased_choice":false,"side_choice": "RIGHT", "trial_number":17,"observed_reward":0,"unobserved_reward":0},{"RT":2533,"time": "2018-07-29 03:46:52pm", "schedule_type": "STATIC", "schedule_name": "random_15", "is_biased_choice":true,"side_choice": "LEFT", "trial_number":18,"observed_reward":0,"unobserved_reward":1},{"RT":2750,"time": "2018-07-29 03:46:54pm", "schedule_type": "STATIC", "schedule_name": "random_15", "is_biased_choice":true,"side_choice": "LEFT", "trial_number":19,"observed_reward":0,"unobserved_reward":0},{"RT":2258,"time": "2018-07-29 03:46:57pm", "schedule_type": "STATIC", "schedule_name": "random_15", "is_biased_choice":true,"side_choice": "LEFT", "trial_number":20,"observed_reward":0,"unobserved_reward":0},{"RT":2440,"time": "2018-07-29 03:46:59pm", "schedule_type": "STATIC", "schedule_name": "random_15", "is_biased_choice":true,"side_choice": "LEFT", "trial_number":21,"observed_reward":1,"unobserved_reward":0},{"RT":2481,"time": "2018-07-29 03:47:01pm", "schedule_type": "STATIC", "schedule_name": "random_15", "is_biased_choice":true,"side_choice": "LEFT", "trial_number":22,"observed_reward":0,"unobserved_reward":0},{"RT":2369,"time": "2018-07-29 03:47:03pm", "schedule_type": "STATIC", "schedule_name": "random_15", "is_biased_choice":true,"side_choice": "LEFT", "trial_number":23,"observed_reward":0,"unobserved_reward":0},{"RT":3520,"time": "2018-07-29 03:47:07pm", "schedule_type": "STATIC", "schedule_name": "random_15", "is_biased_choice":true,"side_choice": "LEFT", "trial_number":24,"observed_reward":0,"unobserved_reward":0},{"RT":2417,"time": "2018-07-29 03:47:09pm", "schedule_type": "STATIC", "schedule_name": "random_15", "is_biased_choice":true,"side_choice": "LEFT", "trial_number":25,"observed_reward":1,"unobserved_reward":0},{"RT":4049,"time": "2018-07-29 03:47:14pm", "schedule_type": "STATIC", "schedule_name": "random_15", "is_biased_choice":true,"side_choice": "LEFT", "trial_number":26,"observed_reward":0,"unobserved_reward":0},{"RT":2277,"time": "2018-07-29 03:47:16pm", "schedule_type": "STATIC", "schedule_name": "random_15", "is_biased_choice":true,"side_choice": "LEFT", "trial_number":27,"observed_reward":0,"unobserved_reward":1},{"RT":2304,"time": "2018-07-29 03:47:18pm", "schedule_type": "STATIC", "schedule_name": "random_15", "is_biased_choice":true,"side_choice": "LEFT", "trial_number":28,"observed_reward":0,"unobserved_reward":0},{"RT":2329,"time": "2018-07-29 03:47:20pm", "schedule_type": "STATIC", "schedule_name": "random_15", "is_biased_choice":true,"side_choice": "LEFT", "trial_number":29,"observed_reward":1,"unobserved_reward":0},{"RT":2507,"time": "2018-07-29 03:47:23pm", "schedule_type": "STATIC", "schedule_name": "random_15", "is_biased_choice":true,"side_choice": "LEFT", "trial_number":30,"observed_reward":0,"unobserved_reward":1},{"RT":2300,"time": "2018-07-29 03:47:25pm", "schedule_type": "STATIC", "schedule_name": "random_15", "is_biased_choice":true,"side_choice": "LEFT", "trial_number":31,"observed_reward":0,"unobserved_reward":1},{"RT":2465,"time": "2018-07-29 03:47:28pm", "schedule_type": "STATIC", "schedule_name": "random_15", "is_biased_choice":true,"side_choice": "LEFT", "trial_number":32,"observed_reward":0,"unobserved_reward":0},{"RT":2331,"time": "2018-07-29 03:47:30pm", "schedule_type": "STATIC", "schedule_name": "random_15", "is_biased_choice":true,"side_choice": "LEFT", "trial_number":33,"observed_reward":0,"unobserved_reward":1},{"RT":2430,"time": "2018-07-29 03:47:33pm", "schedule_type": "STATIC", "schedule_name": "random_15", "is_biased_choice":true,"side_choice": "LEFT", "trial_number":34,"observed_reward":0,"unobserved_reward":0},{"RT":2474,"time": "2018-07-29 03:47:35pm", "schedule_type": "STATIC", "schedule_name": "random_15", "is_biased_choice":true,"side_choice": "LEFT", "trial_number":35,"observed_reward":0,"unobserved_reward":0},{"RT":2631,"time": "2018-07-29 03:47:38pm", "schedule_type": "STATIC", "schedule_name": "random_15", "is_biased_choice":true,"side_choice": "LEFT", "trial_number":36,"observed_reward":0,"unobserved_reward":0},{"RT":5184,"time": "2018-07-29 03:47:43pm", "schedule_type": "STATIC", "schedule_name": "random_15", "is_biased_choice":true,"side_choice": "LEFT", "trial_number":37,"observed_reward":0,"unobserved_reward":1},{"RT":2415,"time": "2018-07-29 03:47:45pm", "schedule_type": "STATIC", "schedule_name": "random_15", "is_biased_choice":false,"side_choice": "RIGHT", "trial_number":38,"observed_reward":0,"unobserved_reward":1},{"RT":2711,"time": "2018-07-29 03:47:48pm", "schedule_type": "STATIC", "schedule_name": "random_15", "is_biased_choice":true,"side_choice": "LEFT", "trial_number":39,"observed_reward":0,"unobserved_reward":0},{"RT":2338,"time": "2018-07-29 03:47:50pm", "schedule_type": "STATIC", "schedule_name": "random_15", "is_biased_choice":true,"side_choice": "LEFT", "trial_number":40,"observed_reward":1,"unobserved_reward":1},{"RT":2683,"time": "2018-07-29 03:47:53pm", "schedule_type": "STATIC", "schedule_name": "random_15", "is_biased_choice":true,"side_choice": "LEFT", "trial_number":41,"observed_reward":1,"unobserved_reward":1},{"RT":2500,"time": "2018-07-29 03:47:55pm", "schedule_type": "STATIC", "schedule_name": "random_15", "is_biased_choice":true,"side_choice": "LEFT", "trial_number":42,"observed_reward":1,"unobserved_reward":0},{"RT":2469,"time": "2018-07-29 03:47:58pm", "schedule_type": "STATIC", "schedule_name": "random_15", "is_biased_choice":true,"side_choice": "LEFT", "trial_number":43,"observed_reward":0,"unobserved_reward":1},{"RT":2365,"time": "2018-07-29 03:48:00pm", "schedule_type": "STATIC", "schedule_name": "random_15", "is_biased_choice":true,"side_choice": "LEFT", "trial_number":44,"observed_reward":1,"unobserved_reward":0},{"RT":2951,"time": "2018-07-29 03:48:03pm", "schedule_type": "STATIC", "schedule_name": "random_15", "is_biased_choice":true,"side_choice": "LEFT", "trial_number":45,"observed_reward":0,"unobserved_reward":1},{"RT":2346,"time": "2018-07-29 03:48:05pm", "schedule_type": "STATIC", "schedule_name": "random_15", "is_biased_choice":true,"side_choice": "LEFT", "trial_number":46,"observed_reward":0,"unobserved_reward":0},{"RT":2320,"time": "2018-07-29 03:48:08pm", "schedule_type": "STATIC", "schedule_name": "random_15", "is_biased_choice":true,"side_choice": "LEFT", "trial_number":47,"observed_reward":0,"unobserved_reward":0},{"RT":2283,"time": "2018-07-29 03:48:10pm", "schedule_type": "STATIC", "schedule_name": "random_15", "is_biased_choice":true,"side_choice": "LEFT", "trial_number":48,"observed_reward":1,"unobserved_reward":0},{"RT":2331,"time": "2018-07-29 03:48:13pm", "schedule_type": "STATIC", "schedule_name": "random_15", "is_biased_choice":true,"side_choice": "LEFT", "trial_number":49,"observed_reward":0,"unobserved_reward":0},{"RT":2602,"time": "2018-07-29 03:48:15pm", "schedule_type": "STATIC", "schedule_name": "random_15", "is_biased_choice":true,"side_choice": "LEFT", "trial_number":50,"observed_reward":0,"unobserved_reward":1},{"RT":2453,"time": "2018-07-29 03:48:18pm", "schedule_type": "STATIC", "schedule_name": "random_15", "is_biased_choice":true,"side_choice": "LEFT", "trial_number":51,"observed_reward":0,"unobserved_reward":0},{"RT":2563,"time": "2018-07-29 03:48:20pm", "schedule_type": "STATIC", "schedule_name": "random_15", "is_biased_choice":true,"side_choice": "LEFT", "trial_number":52,"observed_reward":0,"unobserved_reward":0},{"RT":2251,"time": "2018-07-29 03:48:23pm", "schedule_type": "STATIC", "schedule_name": "random_15", "is_biased_choice":true,"side_choice": "LEFT", "trial_number":53,"observed_reward":0,"unobserved_reward":1},{"RT":2283,"time": "2018-07-29 03:48:25pm", "schedule_type": "STATIC", "schedule_name": "random_15", "is_biased_choice":true,"side_choice": "LEFT", "trial_number":54,"observed_reward":1,"unobserved_reward":1},{"RT":2402,"time": "2018-07-29 03:48:27pm", "schedule_type": "STATIC", "schedule_name": "random_15", "is_biased_choice":true,"side_choice": "LEFT", "trial_number":55,"observed_reward":0,"unobserved_reward":0},{"RT":2733,"time": "2018-07-29 03:48:30pm", "schedule_type": "STATIC", "schedule_name": "random_15", "is_biased_choice":true,"side_choice": "LEFT", "trial_number":56,"observed_reward":0,"unobserved_reward":0},{"RT":2616,"time": "2018-07-29 03:48:33pm", "schedule_type": "STATIC", "schedule_name": "random_15", "is_biased_choice":true,"side_choice": "LEFT", "trial_number":57,"observed_reward":0,"unobserved_reward":1},{"RT":2780,"time": "2018-07-29 03:48:35pm", "schedule_type": "STATIC", "schedule_name": "random_15", "is_biased_choice":true,"side_choice": "LEFT", "trial_number":58,"observed_reward":0,"unobserved_reward":0},{"RT":2656,"time": "2018-07-29 03:48:38pm", "schedule_type": "STATIC", "schedule_name": "random_15", "is_biased_choice":true,"side_choice": "LEFT", "trial_number":59,"observed_reward":1,"unobserved_reward":0},{"RT":2626,"time": "2018-07-29 03:48:40pm", "schedule_type": "STATIC", "schedule_name": "random_15", "is_biased_choice":true,"side_choice": "LEFT", "trial_number":60,"observed_reward":0,"unobserved_reward":0},{"RT":2419,"time": "2018-07-29 03:48:43pm", "schedule_type": "STATIC", "schedule_name": "random_15", "is_biased_choice":true,"side_choice": "LEFT", "trial_number":61,"observed_reward":1,"unobserved_reward":1},{"RT":2352,"time": "2018-07-29 03:48:45pm", "schedule_type": "STATIC", "schedule_name": "random_15", "is_biased_choice":true,"side_choice": "LEFT", "trial_number":62,"observed_reward":0,"unobserved_reward":0},{"RT":2283,"time": "2018-07-29 03:48:48pm", "schedule_type": "STATIC", "schedule_name": "random_15", "is_biased_choice":true,"side_choice": "LEFT", "trial_number":63,"observed_reward":0,"unobserved_reward":0},{"RT":3064,"time": "2018-07-29 03:48:51pm", "schedule_type": "STATIC", "schedule_name": "random_15", "is_biased_choice":true,"side_choice": "LEFT", "trial_number":64,"observed_reward":0,"unobserved_reward":0},{"RT":2585,"time": "2018-07-29 03:48:53pm", "schedule_type": "STATIC", "schedule_name": "random_15", "is_biased_choice":true,"side_choice": "LEFT", "trial_number":65,"observed_reward":0,"unobserved_reward":0},{"RT":2437,"time": "2018-07-29 03:48:56pm", "schedule_type": "STATIC", "schedule_name": "random_15", "is_biased_choice":true,"side_choice": "LEFT", "trial_number":66,"observed_reward":0,"unobserved_reward":0},{"RT":2496,"time": "2018-07-29 03:48:58pm", "schedule_type": "STATIC", "schedule_name": "random_15", "is_biased_choice":true,"side_choice": "LEFT", "trial_number":67,"observed_reward":1,"unobserved_reward":0},{"RT":3481,"time": "2018-07-29 03:49:02pm", "schedule_type": "STATIC", "schedule_name": "random_15", "is_biased_choice":true,"side_choice": "LEFT", "trial_number":68,"observed_reward":0,"unobserved_reward":0},{"RT":2568,"time": "2018-07-29 03:49:04pm", "schedule_type": "STATIC", "schedule_name": "random_15", "is_biased_choice":true,"side_choice": "LEFT", "trial_number":69,"observed_reward":1,"unobserved_reward":0},{"RT":2301,"time": "2018-07-29 03:49:07pm", "schedule_type": "STATIC", "schedule_name": "random_15", "is_biased_choice":true,"side_choice": "LEFT", "trial_number":70,"observed_reward":0,"unobserved_reward":1},{"RT":2526,"time": "2018-07-29 03:49:09pm", "schedule_type": "STATIC", "schedule_name": "random_15", "is_biased_choice":true,"side_choice": "LEFT", "trial_number":71,"observed_reward":0,"unobserved_reward":0},{"RT":2323,"time": "2018-07-29 03:49:11pm", "schedule_type": "STATIC", "schedule_name": "random_15", "is_biased_choice":true,"side_choice": "LEFT", "trial_number":72,"observed_reward":0,"unobserved_reward":0},{"RT":2299,"time": "2018-07-29 03:49:14pm", "schedule_type": "STATIC", "schedule_name": "random_15", "is_biased_choice":true,"side_choice": "LEFT", "trial_number":73,"observed_reward":0,"unobserved_reward":0},{"RT":2302,"time": "2018-07-29 03:49:16pm", "schedule_type": "STATIC", "schedule_name": "random_15", "is_biased_choice":true,"side_choice": "LEFT", "trial_number":74,"observed_reward":0,"unobserved_reward":0},{"RT":2648,"time": "2018-07-29 03:49:19pm", "schedule_type": "STATIC", "schedule_name": "random_15", "is_biased_choice":true,"side_choice": "LEFT", "trial_number":75,"observed_reward":0,"unobserved_reward":0},{"RT":2350,"time": "2018-07-29 03:49:21pm", "schedule_type": "STATIC", "schedule_name": "random_15", "is_biased_choice":true,"side_choice": "LEFT", "trial_number":76,"observed_reward":0,"unobserved_reward":1},{"RT":2366,"time": "2018-07-29 03:49:23pm", "schedule_type": "STATIC", "schedule_name": "random_15", "is_biased_choice":true,"side_choice": "LEFT", "trial_number":77,"observed_reward":1,"unobserved_reward":0},{"RT":2369,"time": "2018-07-29 03:49:26pm", "schedule_type": "STATIC", "schedule_name": "random_15", "is_biased_choice":true,"side_choice": "LEFT", "trial_number":78,"observed_reward":0,"unobserved_reward":0},{"RT":2565,"time": "2018-07-29 03:49:28pm", "schedule_type": "STATIC", "schedule_name": "random_15", "is_biased_choice":true,"side_choice": "LEFT", "trial_number":79,"observed_reward":0,"unobserved_reward":0},{"RT":2449,"time": "2018-07-29 03:49:31pm", "schedule_type": "STATIC", "schedule_name": "random_15", "is_biased_choice":true,"side_choice": "LEFT", "trial_number":80,"observed_reward":0,"unobserved_reward":1},{"RT":2301,"time": "2018-07-29 03:49:33pm", "schedule_type": "STATIC", "schedule_name": "random_15", "is_biased_choice":true,"side_choice": "LEFT", "trial_number":81,"observed_reward":1,"unobserved_reward":0},{"RT":2746,"time": "2018-07-29 03:49:36pm", "schedule_type": "STATIC", "schedule_name": "random_15", "is_biased_choice":true,"side_choice": "LEFT", "trial_number":82,"observed_reward":1,"unobserved_reward":0},{"RT":2871,"time": "2018-07-29 03:49:39pm", "schedule_type": "STATIC", "schedule_name": "random_15", "is_biased_choice":true,"side_choice": "LEFT", "trial_number":83,"observed_reward":0,"unobserved_reward":0},{"RT":2668,"time": "2018-07-29 03:49:41pm", "schedule_type": "STATIC", "schedule_name": "random_15", "is_biased_choice":true,"side_choice": "LEFT", "trial_number":84,"observed_reward":1,"unobserved_reward":1},{"RT":2981,"time": "2018-07-29 03:49:45pm", "schedule_type": "STATIC", "schedule_name": "random_15", "is_biased_choice":true,"side_choice": "LEFT", "trial_number":85,"observed_reward":0,"unobserved_reward":0},{"RT":2566,"time": "2018-07-29 03:49:47pm", "schedule_type": "STATIC", "schedule_name": "random_15", "is_biased_choice":true,"side_choice": "LEFT", "trial_number":86,"observed_reward":0,"unobserved_reward":1},{"RT":2301,"time": "2018-07-29 03:49:49pm", "schedule_type": "STATIC", "schedule_name": "random_15", "is_biased_choice":true,"side_choice": "LEFT", "trial_number":87,"observed_reward":0,"unobserved_reward":0},{"RT":2318,"time": "2018-07-29 03:49:51pm", "schedule_type": "STATIC", "schedule_name": "random_15", "is_biased_choice":true,"side_choice": "LEFT", "trial_number":88,"observed_reward":0,"unobserved_reward":0},{"RT":2314,"time": "2018-07-29 03:49:54pm", "schedule_type": "STATIC", "schedule_name": "random_15", "is_biased_choice":true,"side_choice": "LEFT", "trial_number":89,"observed_reward":0,"unobserved_reward":0},{"RT":2485,"time": "2018-07-29 03:49:56pm", "schedule_type": "STATIC", "schedule_name": "random_15", "is_biased_choice":true,"side_choice": "LEFT", "trial_number":90,"observed_reward":0,"unobserved_reward":0},{"RT":2382,"time": "2018-07-29 03:49:59pm", "schedule_type": "STATIC", "schedule_name": "random_15", "is_biased_choice":true,"side_choice": "LEFT", "trial_number":91,"observed_reward":0,"unobserved_reward":0},{"RT":2786,"time": "2018-07-29 03:50:01pm", "schedule_type": "STATIC", "schedule_name": "random_15", "is_biased_choice":true,"side_choice": "LEFT", "trial_number":92,"observed_reward":1,"unobserved_reward":0},{"RT":2813,"time": "2018-07-29 03:50:04pm", "schedule_type": "STATIC", "schedule_name": "random_15", "is_biased_choice":true,"side_choice": "LEFT", "trial_number":93,"observed_reward":0,"unobserved_reward":1},{"RT":2216,"time": "2018-07-29 03:50:06pm", "schedule_type": "STATIC", "schedule_name": "random_15", "is_biased_choice":true,"side_choice": "LEFT", "trial_number":94,"observed_reward":0,"unobserved_reward":1},{"RT":2303,"time": "2018-07-29 03:50:09pm", "schedule_type": "STATIC", "schedule_name": "random_15", "is_biased_choice":true,"side_choice": "LEFT", "trial_number":95,"observed_reward":0,"unobserved_reward":0},{"RT":2700,"time": "2018-07-29 03:50:11pm", "schedule_type": "STATIC", "schedule_name": "random_15", "is_biased_choice":true,"side_choice": "LEFT", "trial_number":96,"observed_reward":0,"unobserved_reward":1},{"RT":2281,"time": "2018-07-29 03:50:14pm", "schedule_type": "STATIC", "schedule_name": "random_15", "is_biased_choice":true,"side_choice": "LEFT", "trial_number":97,"observed_reward":1,"unobserved_reward":0},{"RT":3198,"time": "2018-07-29 03:50:17pm", "schedule_type": "STATIC", "schedule_name": "random_15", "is_biased_choice":true,"side_choice": "LEFT", "trial_number":98,"observed_reward":0,"unobserved_reward":0},{"RT":2502,"time": "2018-07-29 03:50:19pm", "schedule_type": "STATIC", "schedule_name": "random_15", "is_biased_choice":true,"side_choice": "LEFT", "trial_number":99,"observed_reward":0,"unobserved_reward":0}]