trial_number, time, schedule_type, schedule_name, is_biased_choice, side_choice, RT, observed_reward, unobserved_reward, biased_reward, unbiased_reward
0,2018-08-15 05:35:31pm, STATIC, random_15, false, RIGHT, 6104, 0, 0, 0, 0
1,2018-08-15 05:35:35pm, STATIC, random_15, true, LEFT, 3753, 1, 0, 1, 0
2,2018-08-15 05:35:37pm, STATIC, random_15, true, LEFT, 2879, 0, 1, 0, 1
3,2018-08-15 05:35:40pm, STATIC, random_15, false, RIGHT, 2953, 1, 0, 0, 1
4,2018-08-15 05:35:43pm, STATIC, random_15, false, RIGHT, 2768, 0, 1, 1, 0
5,2018-08-15 05:35:46pm, STATIC, random_15, true, LEFT, 2497, 1, 0, 1, 0
6,2018-08-15 05:35:48pm, STATIC, random_15, false, RIGHT, 2481, 0, 0, 0, 0
7,2018-08-15 05:35:50pm, STATIC, random_15, true, LEFT, 2336, 0, 0, 0, 0
8,2018-08-15 05:35:54pm, STATIC, random_15, true, LEFT, 3048, 1, 0, 1, 0
9,2018-08-15 05:35:56pm, STATIC, random_15, false, RIGHT, 2416, 0, 0, 0, 0
10,2018-08-15 05:35:58pm, STATIC, random_15, true, LEFT, 2289, 1, 0, 1, 0
11,2018-08-15 05:36:00pm, STATIC, random_15, true, LEFT, 2232, 0, 0, 0, 0
12,2018-08-15 05:36:03pm, STATIC, random_15, false, RIGHT, 2231, 0, 0, 0, 0
13,2018-08-15 05:36:05pm, STATIC, random_15, true, LEFT, 2273, 0, 0, 0, 0
14,2018-08-15 05:36:08pm, STATIC, random_15, true, LEFT, 2945, 0, 0, 0, 0
15,2018-08-15 05:36:11pm, STATIC, random_15, true, LEFT, 2672, 0, 0, 0, 0
16,2018-08-15 05:36:13pm, STATIC, random_15, true, LEFT, 2384, 0, 0, 0, 0
17,2018-08-15 05:36:15pm, STATIC, random_15, false, RIGHT, 2233, 0, 0, 0, 0
18,2018-08-15 05:36:17pm, STATIC, random_15, true, LEFT, 2175, 0, 1, 0, 1
19,2018-08-15 05:36:20pm, STATIC, random_15, false, RIGHT, 2361, 0, 0, 0, 0
20,2018-08-15 05:36:22pm, STATIC, random_15, true, LEFT, 2215, 0, 0, 0, 0
21,2018-08-15 05:36:24pm, STATIC, random_15, false, RIGHT, 2537, 0, 1, 1, 0
22,2018-08-15 05:36:27pm, STATIC, random_15, true, LEFT, 2833, 0, 0, 0, 0
23,2018-08-15 05:36:30pm, STATIC, random_15, false, RIGHT, 2367, 0, 0, 0, 0
24,2018-08-15 05:36:32pm, STATIC, random_15, false, RIGHT, 2544, 0, 0, 0, 0
25,2018-08-15 05:36:35pm, STATIC, random_15, true, LEFT, 2345, 1, 0, 1, 0
26,2018-08-15 05:36:37pm, STATIC, random_15, true, LEFT, 2224, 0, 0, 0, 0
27,2018-08-15 05:36:39pm, STATIC, random_15, false, RIGHT, 2192, 1, 0, 0, 1
28,2018-08-15 05:36:42pm, STATIC, random_15, false, RIGHT, 2560, 0, 0, 0, 0
29,2018-08-15 05:36:44pm, STATIC, random_15, true, LEFT, 2513, 1, 0, 1, 0
30,2018-08-15 05:36:46pm, STATIC, random_15, true, LEFT, 2193, 0, 1, 0, 1
31,2018-08-15 05:36:48pm, STATIC, random_15, false, RIGHT, 2143, 1, 0, 0, 1
32,2018-08-15 05:36:51pm, STATIC, random_15, false, RIGHT, 2225, 0, 0, 0, 0
33,2018-08-15 05:36:53pm, STATIC, random_15, true, LEFT, 2119, 0, 1, 0, 1
34,2018-08-15 05:36:55pm, STATIC, random_15, false, RIGHT, 2208, 0, 0, 0, 0
35,2018-08-15 05:36:57pm, STATIC, random_15, true, LEFT, 2057, 0, 0, 0, 0
36,2018-08-15 05:36:59pm, STATIC, random_15, true, LEFT, 2072, 0, 0, 0, 0
37,2018-08-15 05:37:01pm, STATIC, random_15, false, RIGHT, 2337, 1, 0, 0, 1
38,2018-08-15 05:37:04pm, STATIC, random_15, false, RIGHT, 2407, 0, 1, 1, 0
39,2018-08-15 05:37:06pm, STATIC, random_15, true, LEFT, 2121, 0, 0, 0, 0
40,2018-08-15 05:37:09pm, STATIC, random_15, false, RIGHT, 2952, 1, 1, 1, 1
41,2018-08-15 05:37:11pm, STATIC, random_15, false, RIGHT, 2240, 1, 1, 1, 1
42,2018-08-15 05:37:14pm, STATIC, random_15, true, LEFT, 2448, 1, 0, 1, 0
43,2018-08-15 05:37:16pm, STATIC, random_15, true, LEFT, 2153, 0, 1, 0, 1
44,2018-08-15 05:37:18pm, STATIC, random_15, false, RIGHT, 2191, 0, 1, 1, 0
45,2018-08-15 05:37:20pm, STATIC, random_15, true, LEFT, 2552, 0, 1, 0, 1
46,2018-08-15 05:37:23pm, STATIC, random_15, false, RIGHT, 2282, 0, 0, 0, 0
47,2018-08-15 05:37:25pm, STATIC, random_15, false, RIGHT, 2647, 0, 0, 0, 0
48,2018-08-15 05:37:28pm, STATIC, random_15, true, LEFT, 2201, 1, 0, 1, 0
49,2018-08-15 05:37:30pm, STATIC, random_15, true, LEFT, 2191, 0, 0, 0, 0
50,2018-08-15 05:37:32pm, STATIC, random_15, false, RIGHT, 2473, 1, 0, 0, 1
51,2018-08-15 05:37:34pm, STATIC, random_15, false, RIGHT, 2241, 0, 0, 0, 0
52,2018-08-15 05:37:37pm, STATIC, random_15, true, LEFT, 2167, 0, 0, 0, 0
53,2018-08-15 05:37:39pm, STATIC, random_15, false, RIGHT, 2185, 1, 0, 0, 1
54,2018-08-15 05:37:41pm, STATIC, random_15, false, RIGHT, 2457, 1, 1, 1, 1
55,2018-08-15 05:37:43pm, STATIC, random_15, false, RIGHT, 2215, 0, 0, 0, 0
56,2018-08-15 05:37:46pm, STATIC, random_15, true, LEFT, 2489, 0, 0, 0, 0
57,2018-08-15 05:37:48pm, STATIC, random_15, true, LEFT, 2183, 0, 1, 0, 1
58,2018-08-15 05:37:50pm, STATIC, random_15, false, RIGHT, 2154, 0, 0, 0, 0
59,2018-08-15 05:37:53pm, STATIC, random_15, true, LEFT, 2880, 1, 0, 1, 0
60,2018-08-15 05:37:55pm, STATIC, random_15, true, LEFT, 2207, 0, 0, 0, 0
61,2018-08-15 05:37:58pm, STATIC, random_15, false, RIGHT, 2137, 1, 1, 1, 1
62,2018-08-15 05:38:00pm, STATIC, random_15, false, RIGHT, 2169, 0, 0, 0, 0
63,2018-08-15 05:38:02pm, STATIC, random_15, true, LEFT, 2103, 0, 0, 0, 0
64,2018-08-15 05:38:04pm, STATIC, random_15, false, RIGHT, 2153, 0, 0, 0, 0
65,2018-08-15 05:38:06pm, STATIC, random_15, false, RIGHT, 2135, 0, 0, 0, 0
66,2018-08-15 05:38:08pm, STATIC, random_15, true, LEFT, 2089, 0, 0, 0, 0
67,2018-08-15 05:38:10pm, STATIC, random_15, false, RIGHT, 2200, 0, 1, 1, 0
68,2018-08-15 05:38:13pm, STATIC, random_15, false, RIGHT, 2200, 0, 0, 0, 0
69,2018-08-15 05:38:15pm, STATIC, random_15, true, LEFT, 2313, 1, 0, 1, 0
70,2018-08-15 05:38:17pm, STATIC, random_15, true, LEFT, 2128, 0, 1, 0, 1
71,2018-08-15 05:38:19pm, STATIC, random_15, false, RIGHT, 2296, 0, 0, 0, 0
72,2018-08-15 05:38:22pm, STATIC, random_15, true, LEFT, 2857, 0, 0, 0, 0
73,2018-08-15 05:38:24pm, STATIC, random_15, false, RIGHT, 2176, 0, 0, 0, 0
74,2018-08-15 05:38:27pm, STATIC, random_15, true, LEFT, 2192, 0, 0, 0, 0
75,2018-08-15 05:38:29pm, STATIC, random_15, true, LEFT, 2200, 0, 0, 0, 0
76,2018-08-15 05:38:31pm, STATIC, random_15, false, RIGHT, 2112, 1, 0, 0, 1
77,2018-08-15 05:38:33pm, STATIC, random_15, false, RIGHT, 2288, 0, 1, 1, 0
78,2018-08-15 05:38:35pm, STATIC, random_15, false, RIGHT, 2169, 0, 0, 0, 0
79,2018-08-15 05:38:37pm, STATIC, random_15, false, RIGHT, 2111, 0, 0, 0, 0
80,2018-08-15 05:38:40pm, STATIC, random_15, false, RIGHT, 2113, 1, 0, 0, 1
81,2018-08-15 05:38:42pm, STATIC, random_15, false, RIGHT, 2137, 0, 1, 1, 0
82,2018-08-15 05:38:44pm, STATIC, random_15, true, LEFT, 2648, 1, 0, 1, 0
83,2018-08-15 05:38:47pm, STATIC, random_15, true, LEFT, 2239, 0, 0, 0, 0
84,2018-08-15 05:38:49pm, STATIC, random_15, false, RIGHT, 2064, 1, 1, 1, 1
85,2018-08-15 05:38:51pm, STATIC, random_15, true, LEFT, 2161, 0, 0, 0, 0
86,2018-08-15 05:38:53pm, STATIC, random_15, false, RIGHT, 2328, 1, 0, 0, 1
87,2018-08-15 05:38:55pm, STATIC, random_15, false, RIGHT, 2112, 0, 0, 0, 0
88,2018-08-15 05:38:57pm, STATIC, random_15, true, LEFT, 2176, 0, 0, 0, 0
89,2018-08-15 05:39:00pm, STATIC, random_15, false, RIGHT, 2121, 0, 0, 0, 0
90,2018-08-15 05:39:02pm, STATIC, random_15, false, RIGHT, 2168, 0, 0, 0, 0
91,2018-08-15 05:39:04pm, STATIC, random_15, false, RIGHT, 2416, 0, 0, 0, 0
92,2018-08-15 05:39:07pm, STATIC, random_15, false, RIGHT, 2584, 0, 1, 1, 0
93,2018-08-15 05:39:09pm, STATIC, random_15, false, RIGHT, 2177, 1, 0, 0, 1
94,2018-08-15 05:39:11pm, STATIC, random_15, false, RIGHT, 2304, 1, 0, 0, 1
95,2018-08-15 05:39:13pm, STATIC, random_15, false, RIGHT, 2224, 0, 0, 0, 0
96,2018-08-15 05:39:16pm, STATIC, random_15, false, RIGHT, 2248, 1, 0, 0, 1
97,2018-08-15 05:39:18pm, STATIC, random_15, false, RIGHT, 2216, 0, 1, 1, 0
98,2018-08-15 05:39:20pm, STATIC, random_15, false, RIGHT, 2586, 0, 0, 0, 0
99,2018-08-15 05:39:23pm, STATIC, random_15, true, LEFT, 2174, 0, 0, 0, 0
