[{"RT":5147,"time": "2018-08-15 06:19:44pm", "schedule_type": "STATIC", "schedule_name": "random_15", "is_biased_choice":false,"side_choice": "LEFT", "trial_number":0,"observed_reward":0,"unobserved_reward":0},{"RT":2867,"time": "2018-08-15 06:19:47pm", "schedule_type": "STATIC", "schedule_name": "random_15", "is_biased_choice":true,"side_choice": "RIGHT", "trial_number":1,"observed_reward":1,"unobserved_reward":0},{"RT":2286,"time": "2018-08-15 06:19:50pm", "schedule_type": "STATIC", "schedule_name": "random_15", "is_biased_choice":true,"side_choice": "RIGHT", "trial_number":2,"observed_reward":0,"unobserved_reward":1},{"RT":2223,"time": "2018-08-15 06:19:52pm", "schedule_type": "STATIC", "schedule_name": "random_15", "is_biased_choice":true,"side_choice": "RIGHT", "trial_number":3,"observed_reward":0,"unobserved_reward":1},{"RT":2384,"time": "2018-08-15 06:19:54pm", "schedule_type": "STATIC", "schedule_name": "random_15", "is_biased_choice":true,"side_choice": "RIGHT", "trial_number":4,"observed_reward":1,"unobserved_reward":0},{"RT":2136,"time": "2018-08-15 06:19:56pm", "schedule_type": "STATIC", "schedule_name": "random_15", "is_biased_choice":true,"side_choice": "RIGHT", "trial_number":5,"observed_reward":1,"unobserved_reward":0},{"RT":2183,"time": "2018-08-15 06:19:59pm", "schedule_type": "STATIC", "schedule_name": "random_15", "is_biased_choice":true,"side_choice": "RIGHT", "trial_number":6,"observed_reward":0,"unobserved_reward":0},{"RT":2233,"time": "2018-08-15 06:20:01pm", "schedule_type": "STATIC", "schedule_name": "random_15", "is_biased_choice":true,"side_choice": "RIGHT", "trial_number":7,"observed_reward":0,"unobserved_reward":0},{"RT":2264,"time": "2018-08-15 06:20:03pm", "schedule_type": "STATIC", "schedule_name": "random_15", "is_biased_choice":true,"side_choice": "RIGHT", "trial_number":8,"observed_reward":1,"unobserved_reward":0},{"RT":2121,"time": "2018-08-15 06:20:05pm", "schedule_type": "STATIC", "schedule_name": "random_15", "is_biased_choice":true,"side_choice": "RIGHT", "trial_number":9,"observed_reward":0,"unobserved_reward":0},{"RT":2103,"time": "2018-08-15 06:20:07pm", "schedule_type": "STATIC", "schedule_name": "random_15", "is_biased_choice":true,"side_choice": "RIGHT", "trial_number":10,"observed_reward":1,"unobserved_reward":0},{"RT":2128,"time": "2018-08-15 06:20:09pm", "schedule_type": "STATIC", "schedule_name": "random_15", "is_biased_choice":true,"side_choice": "RIGHT", "trial_number":11,"observed_reward":0,"unobserved_reward":0},{"RT":2064,"time": "2018-08-15 06:20:11pm", "schedule_type": "STATIC", "schedule_name": "random_15", "is_biased_choice":true,"side_choice": "RIGHT", "trial_number":12,"observed_reward":0,"unobserved_reward":0},{"RT":2065,"time": "2018-08-15 06:20:13pm", "schedule_type": "STATIC", "schedule_name": "random_15", "is_biased_choice":true,"side_choice": "RIGHT", "trial_number":13,"observed_reward":0,"unobserved_reward":0},{"RT":2456,"time": "2018-08-15 06:20:16pm", "schedule_type": "STATIC", "schedule_name": "random_15", "is_biased_choice":true,"side_choice": "RIGHT", "trial_number":14,"observed_reward":0,"unobserved_reward":0},{"RT":2121,"time": "2018-08-15 06:20:18pm", "schedule_type": "STATIC", "schedule_name": "random_15", "is_biased_choice":true,"side_choice": "RIGHT", "trial_number":15,"observed_reward":0,"unobserved_reward":0},{"RT":2127,"time": "2018-08-15 06:20:20pm", "schedule_type": "STATIC", "schedule_name": "random_15", "is_biased_choice":true,"side_choice": "RIGHT", "trial_number":16,"observed_reward":0,"unobserved_reward":0},{"RT":2136,"time": "2018-08-15 06:20:22pm", "schedule_type": "STATIC", "schedule_name": "random_15", "is_biased_choice":true,"side_choice": "RIGHT", "trial_number":17,"observed_reward":0,"unobserved_reward":0},{"RT":2119,"time": "2018-08-15 06:20:24pm", "schedule_type": "STATIC", "schedule_name": "random_15", "is_biased_choice":false,"side_choice": "LEFT", "trial_number":18,"observed_reward":1,"unobserved_reward":0},{"RT":2154,"time": "2018-08-15 06:20:27pm", "schedule_type": "STATIC", "schedule_name": "random_15", "is_biased_choice":true,"side_choice": "RIGHT", "trial_number":19,"observed_reward":0,"unobserved_reward":0},{"RT":2120,"time": "2018-08-15 06:20:29pm", "schedule_type": "STATIC", "schedule_name": "random_15", "is_biased_choice":false,"side_choice": "LEFT", "trial_number":20,"observed_reward":0,"unobserved_reward":0},{"RT":2183,"time": "2018-08-15 06:20:31pm", "schedule_type": "STATIC", "schedule_name": "random_15", "is_biased_choice":false,"side_choice": "LEFT", "trial_number":21,"observed_reward":0,"unobserved_reward":1},{"RT":2121,"time": "2018-08-15 06:20:33pm", "schedule_type": "STATIC", "schedule_name": "random_15", "is_biased_choice":true,"side_choice": "RIGHT", "trial_number":22,"observed_reward":0,"unobserved_reward":0},{"RT":2184,"time": "2018-08-15 06:20:35pm", "schedule_type": "STATIC", "schedule_name": "random_15", "is_biased_choice":true,"side_choice": "RIGHT", "trial_number":23,"observed_reward":0,"unobserved_reward":0},{"RT":3271,"time": "2018-08-15 06:20:39pm", "schedule_type": "STATIC", "schedule_name": "random_15", "is_biased_choice":false,"side_choice": "LEFT", "trial_number":24,"observed_reward":0,"unobserved_reward":0},{"RT":2137,"time": "2018-08-15 06:20:41pm", "schedule_type": "STATIC", "schedule_name": "random_15", "is_biased_choice":true,"side_choice": "RIGHT", "trial_number":25,"observed_reward":1,"unobserved_reward":0},{"RT":2159,"time": "2018-08-15 06:20:43pm", "schedule_type": "STATIC", "schedule_name": "random_15", "is_biased_choice":false,"side_choice": "LEFT", "trial_number":26,"observed_reward":0,"unobserved_reward":0},{"RT":2112,"time": "2018-08-15 06:20:45pm", "schedule_type": "STATIC", "schedule_name": "random_15", "is_biased_choice":true,"side_choice": "RIGHT", "trial_number":27,"observed_reward":0,"unobserved_reward":1},{"RT":2359,"time": "2018-08-15 06:20:47pm", "schedule_type": "STATIC", "schedule_name": "random_15", "is_biased_choice":true,"side_choice": "RIGHT", "trial_number":28,"observed_reward":0,"unobserved_reward":0},{"RT":2313,"time": "2018-08-15 06:20:50pm", "schedule_type": "STATIC", "schedule_name": "random_15", "is_biased_choice":false,"side_choice": "LEFT", "trial_number":29,"observed_reward":0,"unobserved_reward":1},{"RT":2191,"time": "2018-08-15 06:20:52pm", "schedule_type": "STATIC", "schedule_name": "random_15", "is_biased_choice":false,"side_choice": "LEFT", "trial_number":30,"observed_reward":1,"unobserved_reward":0},{"RT":2136,"time": "2018-08-15 06:20:54pm", "schedule_type": "STATIC", "schedule_name": "random_15", "is_biased_choice":false,"side_choice": "LEFT", "trial_number":31,"observed_reward":1,"unobserved_reward":0},{"RT":2128,"time": "2018-08-15 06:20:56pm", "schedule_type": "STATIC", "schedule_name": "random_15", "is_biased_choice":false,"side_choice": "LEFT", "trial_number":32,"observed_reward":0,"unobserved_reward":0},{"RT":2098,"time": "2018-08-15 06:20:58pm", "schedule_type": "STATIC", "schedule_name": "random_15", "is_biased_choice":false,"side_choice": "LEFT", "trial_number":33,"observed_reward":1,"unobserved_reward":0},{"RT":2095,"time": "2018-08-15 06:21:00pm", "schedule_type": "STATIC", "schedule_name": "random_15", "is_biased_choice":false,"side_choice": "LEFT", "trial_number":34,"observed_reward":0,"unobserved_reward":0},{"RT":2120,"time": "2018-08-15 06:21:02pm", "schedule_type": "STATIC", "schedule_name": "random_15", "is_biased_choice":true,"side_choice": "RIGHT", "trial_number":35,"observed_reward":0,"unobserved_reward":0},{"RT":2143,"time": "2018-08-15 06:21:04pm", "schedule_type": "STATIC", "schedule_name": "random_15", "is_biased_choice":true,"side_choice": "RIGHT", "trial_number":36,"observed_reward":0,"unobserved_reward":0},{"RT":2192,"time": "2018-08-15 06:21:07pm", "schedule_type": "STATIC", "schedule_name": "random_15", "is_biased_choice":true,"side_choice": "RIGHT", "trial_number":37,"observed_reward":0,"unobserved_reward":1},{"RT":2128,"time": "2018-08-15 06:21:09pm", "schedule_type": "STATIC", "schedule_name": "random_15", "is_biased_choice":false,"side_choice": "LEFT", "trial_number":38,"observed_reward":0,"unobserved_reward":1},{"RT":2137,"time": "2018-08-15 06:21:11pm", "schedule_type": "STATIC", "schedule_name": "random_15", "is_biased_choice":false,"side_choice": "LEFT", "trial_number":39,"observed_reward":0,"unobserved_reward":0},{"RT":2136,"time": "2018-08-15 06:21:13pm", "schedule_type": "STATIC", "schedule_name": "random_15", "is_biased_choice":false,"side_choice": "LEFT", "trial_number":40,"observed_reward":1,"unobserved_reward":1},{"RT":2176,"time": "2018-08-15 06:21:15pm", "schedule_type": "STATIC", "schedule_name": "random_15", "is_biased_choice":false,"side_choice": "LEFT", "trial_number":41,"observed_reward":1,"unobserved_reward":1},{"RT":2080,"time": "2018-08-15 06:21:17pm", "schedule_type": "STATIC", "schedule_name": "random_15", "is_biased_choice":false,"side_choice": "LEFT", "trial_number":42,"observed_reward":0,"unobserved_reward":1},{"RT":2160,"time": "2018-08-15 06:21:19pm", "schedule_type": "STATIC", "schedule_name": "random_15", "is_biased_choice":false,"side_choice": "LEFT", "trial_number":43,"observed_reward":1,"unobserved_reward":0},{"RT":2296,"time": "2018-08-15 06:21:22pm", "schedule_type": "STATIC", "schedule_name": "random_15", "is_biased_choice":false,"side_choice": "LEFT", "trial_number":44,"observed_reward":0,"unobserved_reward":1},{"RT":2073,"time": "2018-08-15 06:21:24pm", "schedule_type": "STATIC", "schedule_name": "random_15", "is_biased_choice":false,"side_choice": "LEFT", "trial_number":45,"observed_reward":1,"unobserved_reward":0},{"RT":2150,"time": "2018-08-15 06:21:26pm", "schedule_type": "STATIC", "schedule_name": "random_15", "is_biased_choice":false,"side_choice": "LEFT", "trial_number":46,"observed_reward":0,"unobserved_reward":0},{"RT":3897,"time": "2018-08-15 06:21:30pm", "schedule_type": "STATIC", "schedule_name": "random_15", "is_biased_choice":false,"side_choice": "LEFT", "trial_number":47,"observed_reward":0,"unobserved_reward":0},{"RT":2113,"time": "2018-08-15 06:21:32pm", "schedule_type": "STATIC", "schedule_name": "random_15", "is_biased_choice":false,"side_choice": "LEFT", "trial_number":48,"observed_reward":0,"unobserved_reward":1},{"RT":2055,"time": "2018-08-15 06:21:34pm", "schedule_type": "STATIC", "schedule_name": "random_15", "is_biased_choice":false,"side_choice": "LEFT", "trial_number":49,"observed_reward":0,"unobserved_reward":0},{"RT":2072,"time": "2018-08-15 06:21:36pm", "schedule_type": "STATIC", "schedule_name": "random_15", "is_biased_choice":false,"side_choice": "LEFT", "trial_number":50,"observed_reward":1,"unobserved_reward":0},{"RT":2352,"time": "2018-08-15 06:21:38pm", "schedule_type": "STATIC", "schedule_name": "random_15", "is_biased_choice":false,"side_choice": "LEFT", "trial_number":51,"observed_reward":0,"unobserved_reward":0},{"RT":2040,"time": "2018-08-15 06:21:41pm", "schedule_type": "STATIC", "schedule_name": "random_15", "is_biased_choice":false,"side_choice": "LEFT", "trial_number":52,"observed_reward":0,"unobserved_reward":0},{"RT":2056,"time": "2018-08-15 06:21:43pm", "schedule_type": "STATIC", "schedule_name": "random_15", "is_biased_choice":false,"side_choice": "LEFT", "trial_number":53,"observed_reward":1,"unobserved_reward":0},{"RT":2088,"time": "2018-08-15 06:21:45pm", "schedule_type": "STATIC", "schedule_name": "random_15", "is_biased_choice":false,"side_choice": "LEFT", "trial_number":54,"observed_reward":1,"unobserved_reward":1},{"RT":2112,"time": "2018-08-15 06:21:47pm", "schedule_type": "STATIC", "schedule_name": "random_15", "is_biased_choice":false,"side_choice": "LEFT", "trial_number":55,"observed_reward":0,"unobserved_reward":0},{"RT":2056,"time": "2018-08-15 06:21:49pm", "schedule_type": "STATIC", "schedule_name": "random_15", "is_biased_choice":false,"side_choice": "LEFT", "trial_number":56,"observed_reward":0,"unobserved_reward":0},{"RT":2073,"time": "2018-08-15 06:21:51pm", "schedule_type": "STATIC", "schedule_name": "random_15", "is_biased_choice":false,"side_choice": "LEFT", "trial_number":57,"observed_reward":1,"unobserved_reward":0},{"RT":2120,"time": "2018-08-15 06:21:53pm", "schedule_type": "STATIC", "schedule_name": "random_15", "is_biased_choice":false,"side_choice": "LEFT", "trial_number":58,"observed_reward":0,"unobserved_reward":0},{"RT":2184,"time": "2018-08-15 06:21:55pm", "schedule_type": "STATIC", "schedule_name": "random_15", "is_biased_choice":false,"side_choice": "LEFT", "trial_number":59,"observed_reward":0,"unobserved_reward":1},{"RT":2095,"time": "2018-08-15 06:21:57pm", "schedule_type": "STATIC", "schedule_name": "random_15", "is_biased_choice":false,"side_choice": "LEFT", "trial_number":60,"observed_reward":0,"unobserved_reward":0},{"RT":2112,"time": "2018-08-15 06:21:59pm", "schedule_type": "STATIC", "schedule_name": "random_15", "is_biased_choice":false,"side_choice": "LEFT", "trial_number":61,"observed_reward":1,"unobserved_reward":1},{"RT":2656,"time": "2018-08-15 06:22:02pm", "schedule_type": "STATIC", "schedule_name": "random_15", "is_biased_choice":false,"side_choice": "LEFT", "trial_number":62,"observed_reward":0,"unobserved_reward":0},{"RT":5383,"time": "2018-08-15 06:22:08pm", "schedule_type": "STATIC", "schedule_name": "random_15", "is_biased_choice":false,"side_choice": "LEFT", "trial_number":63,"observed_reward":0,"unobserved_reward":0},{"RT":2090,"time": "2018-08-15 06:22:10pm", "schedule_type": "STATIC", "schedule_name": "random_15", "is_biased_choice":false,"side_choice": "LEFT", "trial_number":64,"observed_reward":0,"unobserved_reward":0},{"RT":2039,"time": "2018-08-15 06:22:12pm", "schedule_type": "STATIC", "schedule_name": "random_15", "is_biased_choice":false,"side_choice": "LEFT", "trial_number":65,"observed_reward":0,"unobserved_reward":0},{"RT":2088,"time": "2018-08-15 06:22:14pm", "schedule_type": "STATIC", "schedule_name": "random_15", "is_biased_choice":false,"side_choice": "LEFT", "trial_number":66,"observed_reward":0,"unobserved_reward":0},{"RT":2048,"time": "2018-08-15 06:22:16pm", "schedule_type": "STATIC", "schedule_name": "random_15", "is_biased_choice":false,"side_choice": "LEFT", "trial_number":67,"observed_reward":0,"unobserved_reward":1},{"RT":2095,"time": "2018-08-15 06:22:18pm", "schedule_type": "STATIC", "schedule_name": "random_15", "is_biased_choice":false,"side_choice": "LEFT", "trial_number":68,"observed_reward":0,"unobserved_reward":0},{"RT":2064,"time": "2018-08-15 06:22:20pm", "schedule_type": "STATIC", "schedule_name": "random_15", "is_biased_choice":false,"side_choice": "LEFT", "trial_number":69,"observed_reward":0,"unobserved_reward":1},{"RT":2049,"time": "2018-08-15 06:22:22pm", "schedule_type": "STATIC", "schedule_name": "random_15", "is_biased_choice":false,"side_choice": "LEFT", "trial_number":70,"observed_reward":1,"unobserved_reward":0},{"RT":2520,"time": "2018-08-15 06:22:24pm", "schedule_type": "STATIC", "schedule_name": "random_15", "is_biased_choice":false,"side_choice": "LEFT", "trial_number":71,"observed_reward":0,"unobserved_reward":0},{"RT":2087,"time": "2018-08-15 06:22:27pm", "schedule_type": "STATIC", "schedule_name": "random_15", "is_biased_choice":false,"side_choice": "LEFT", "trial_number":72,"observed_reward":0,"unobserved_reward":0},{"RT":2089,"time": "2018-08-15 06:22:29pm", "schedule_type": "STATIC", "schedule_name": "random_15", "is_biased_choice":false,"side_choice": "LEFT", "trial_number":73,"observed_reward":0,"unobserved_reward":0},{"RT":2056,"time": "2018-08-15 06:22:31pm", "schedule_type": "STATIC", "schedule_name": "random_15", "is_biased_choice":false,"side_choice": "LEFT", "trial_number":74,"observed_reward":0,"unobserved_reward":0},{"RT":2040,"time": "2018-08-15 06:22:33pm", "schedule_type": "STATIC", "schedule_name": "random_15", "is_biased_choice":false,"side_choice": "LEFT", "trial_number":75,"observed_reward":0,"unobserved_reward":0},{"RT":2017,"time": "2018-08-15 06:22:35pm", "schedule_type": "STATIC", "schedule_name": "random_15", "is_biased_choice":false,"side_choice": "LEFT", "trial_number":76,"observed_reward":1,"unobserved_reward":0},{"RT":2062,"time": "2018-08-15 06:22:37pm", "schedule_type": "STATIC", "schedule_name": "random_15", "is_biased_choice":false,"side_choice": "LEFT", "trial_number":77,"observed_reward":0,"unobserved_reward":1},{"RT":2041,"time": "2018-08-15 06:22:39pm", "schedule_type": "STATIC", "schedule_name": "random_15", "is_biased_choice":false,"side_choice": "LEFT", "trial_number":78,"observed_reward":0,"unobserved_reward":0},{"RT":2071,"time": "2018-08-15 06:22:41pm", "schedule_type": "STATIC", "schedule_name": "random_15", "is_biased_choice":false,"side_choice": "LEFT", "trial_number":79,"observed_reward":0,"unobserved_reward":0},{"RT":5272,"time": "2018-08-15 06:22:46pm", "schedule_type": "STATIC", "schedule_name": "random_15", "is_biased_choice":false,"side_choice": "LEFT", "trial_number":80,"observed_reward":1,"unobserved_reward":0},{"RT":3176,"time": "2018-08-15 06:22:49pm", "schedule_type": "STATIC", "schedule_name": "random_15", "is_biased_choice":false,"side_choice": "LEFT", "trial_number":81,"observed_reward":0,"unobserved_reward":1},{"RT":2608,"time": "2018-08-15 06:22:52pm", "schedule_type": "STATIC", "schedule_name": "random_15", "is_biased_choice":false,"side_choice": "LEFT", "trial_number":82,"observed_reward":0,"unobserved_reward":1},{"RT":2641,"time": "2018-08-15 06:22:55pm", "schedule_type": "STATIC", "schedule_name": "random_15", "is_biased_choice":false,"side_choice": "LEFT", "trial_number":83,"observed_reward":0,"unobserved_reward":0},{"RT":2392,"time": "2018-08-15 06:22:57pm", "schedule_type": "STATIC", "schedule_name": "random_15", "is_biased_choice":false,"side_choice": "LEFT", "trial_number":84,"observed_reward":1,"unobserved_reward":1},{"RT":2519,"time": "2018-08-15 06:23:00pm", "schedule_type": "STATIC", "schedule_name": "random_15", "is_biased_choice":false,"side_choice": "LEFT", "trial_number":85,"observed_reward":0,"unobserved_reward":0},{"RT":2401,"time": "2018-08-15 06:23:02pm", "schedule_type": "STATIC", "schedule_name": "random_15", "is_biased_choice":true,"side_choice": "RIGHT", "trial_number":86,"observed_reward":0,"unobserved_reward":1},{"RT":2247,"time": "2018-08-15 06:23:04pm", "schedule_type": "STATIC", "schedule_name": "random_15", "is_biased_choice":true,"side_choice": "RIGHT", "trial_number":87,"observed_reward":0,"unobserved_reward":0},{"RT":2185,"time": "2018-08-15 06:23:06pm", "schedule_type": "STATIC", "schedule_name": "random_15", "is_biased_choice":false,"side_choice": "LEFT", "trial_number":88,"observed_reward":0,"unobserved_reward":0},{"RT":2119,"time": "2018-08-15 06:23:08pm", "schedule_type": "STATIC", "schedule_name": "random_15", "is_biased_choice":false,"side_choice": "LEFT", "trial_number":89,"observed_reward":0,"unobserved_reward":0},{"RT":2161,"time": "2018-08-15 06:23:11pm", "schedule_type": "STATIC", "schedule_name": "random_15", "is_biased_choice":false,"side_choice": "LEFT", "trial_number":90,"observed_reward":0,"unobserved_reward":0},{"RT":2079,"time": "2018-08-15 06:23:13pm", "schedule_type": "STATIC", "schedule_name": "random_15", "is_biased_choice":false,"side_choice": "LEFT", "trial_number":91,"observed_reward":0,"unobserved_reward":0},{"RT":2129,"time": "2018-08-15 06:23:15pm", "schedule_type": "STATIC", "schedule_name": "random_15", "is_biased_choice":false,"side_choice": "LEFT", "trial_number":92,"observed_reward":0,"unobserved_reward":1},{"RT":2104,"time": "2018-08-15 06:23:17pm", "schedule_type": "STATIC", "schedule_name": "random_15", "is_biased_choice":false,"side_choice": "LEFT", "trial_number":93,"observed_reward":1,"unobserved_reward":0},{"RT":2153,"time": "2018-08-15 06:23:19pm", "schedule_type": "STATIC", "schedule_name": "random_15", "is_biased_choice":false,"side_choice": "LEFT", "trial_number":94,"observed_reward":1,"unobserved_reward":0},{"RT":2127,"time": "2018-08-15 06:23:21pm", "schedule_type": "STATIC", "schedule_name": "random_15", "is_biased_choice":false,"side_choice": "LEFT", "trial_number":95,"observed_reward":0,"unobserved_reward":0},{"RT":4294,"time": "2018-08-15 06:23:26pm", "schedule_type": "STATIC", "schedule_name": "random_15", "is_biased_choice":false,"side_choice": "LEFT", "trial_number":96,"observed_reward":1,"unobserved_reward":0},{"RT":11875,"time": "2018-08-15 06:23:37pm", "schedule_type": "STATIC", "schedule_name": "random_15", "is_biased_choice":false,"side_choice": "LEFT", "trial_number":97,"observed_reward":0,"unobserved_reward":1},{"RT":2271,"time": "2018-08-15 06:23:40pm", "schedule_type": "STATIC", "schedule_name": "random_15", "is_biased_choice":false,"side_choice": "LEFT", "trial_number":98,"observed_reward":0,"unobserved_reward":0},{"RT":2144,"time": "2018-08-15 06:23:42pm", "schedule_type": "STATIC", "schedule_name": "random_15", "is_biased_choice":false,"side_choice": "LEFT", "trial_number":99,"observed_reward":0,"unobserved_reward":0},