trial_number, time, schedule_type, schedule_name, is_biased_choice, side_choice, RT, observed_reward, unobserved_reward, biased_reward, unbiased_reward
0,2018-07-29 03:46:24pm, STATIC, random_0, false, LEFT, 5874, 1, 0, 0, 1
1,2018-07-29 03:46:27pm, STATIC, random_0, false, LEFT, 3021, 1, 0, 0, 1
2,2018-07-29 03:46:31pm, STATIC, random_0, false, LEFT, 3250, 1, 0, 0, 1
3,2018-07-29 03:46:33pm, STATIC, random_0, false, LEFT, 2754, 0, 0, 0, 0
4,2018-07-29 03:46:38pm, STATIC, random_0, true, RIGHT, 3081, 0, 0, 0, 0
5,2018-07-29 03:46:40pm, STATIC, random_0, true, RIGHT, 3534, 1, 0, 1, 0
6,2018-07-29 03:46:44pm, STATIC, random_0, true, RIGHT, 2785, 0, 0, 0, 0
7,2018-07-29 03:46:45pm, STATIC, random_0, true, RIGHT, 2956, 0, 0, 0, 0
8,2018-07-29 03:46:49pm, STATIC, random_0, false, LEFT, 3098, 0, 1, 1, 0
9,2018-07-29 03:46:51pm, STATIC, random_0, true, RIGHT, 2602, 0, 0, 0, 0
10,2018-07-29 03:46:55pm, STATIC, random_0, true, RIGHT, 3852, 0, 0, 0, 0
11,2018-07-29 03:46:58pm, STATIC, random_0, false, LEFT, 2979, 0, 1, 1, 0
12,2018-07-29 03:47:02pm, STATIC, random_0, true, RIGHT, 4075, 0, 0, 0, 0
13,2018-07-29 03:47:05pm, STATIC, random_0, true, RIGHT, 2800, 0, 1, 0, 1
14,2018-07-29 03:47:07pm, STATIC, random_0, false, LEFT, 2736, 1, 0, 0, 1
15,2018-07-29 03:47:10pm, STATIC, random_0, false, LEFT, 2746, 0, 0, 0, 0
16,2018-07-29 03:47:13pm, STATIC, random_0, true, RIGHT, 2592, 0, 1, 0, 1
17,2018-07-29 03:47:15pm, STATIC, random_0, false, LEFT, 2657, 0, 0, 0, 0
18,2018-07-29 03:47:18pm, STATIC, random_0, false, LEFT, 3011, 0, 0, 0, 0
19,2018-07-29 03:47:21pm, STATIC, random_0, true, RIGHT, 2660, 1, 0, 1, 0
20,2018-07-29 03:47:24pm, STATIC, random_0, true, RIGHT, 2646, 1, 1, 1, 1
21,2018-07-29 03:47:27pm, STATIC, random_0, true, RIGHT, 2854, 0, 0, 0, 0
22,2018-07-29 03:47:29pm, STATIC, random_0, false, LEFT, 2594, 0, 0, 0, 0
23,2018-07-29 03:47:32pm, STATIC, random_0, true, RIGHT, 2568, 0, 0, 0, 0
24,2018-07-29 03:47:35pm, STATIC, random_0, true, RIGHT, 2778, 0, 0, 0, 0
25,2018-07-29 03:47:37pm, STATIC, random_0, true, RIGHT, 2610, 0, 0, 0, 0
26,2018-07-29 03:47:40pm, STATIC, random_0, true, RIGHT, 2456, 0, 0, 0, 0
27,2018-07-29 03:47:44pm, STATIC, random_0, false, LEFT, 2457, 0, 1, 1, 0
28,2018-07-29 03:47:48pm, STATIC, random_0, false, LEFT, 2930, 0, 0, 0, 0
29,2018-07-29 03:47:50pm, STATIC, random_0, true, RIGHT, 2636, 0, 0, 0, 0
30,2018-07-29 03:47:57pm, STATIC, random_0, false, LEFT, 2698, 0, 0, 0, 0
31,2018-07-29 03:47:57pm, STATIC, random_0, false, LEFT, 3261, 0, 0, 0, 0
32,2018-07-29 03:48:00pm, STATIC, random_0, true, RIGHT, 2642, 0, 0, 0, 0
33,2018-07-29 03:48:02pm, STATIC, random_0, true, RIGHT, 2622, 0, 0, 0, 0
34,2018-07-29 03:48:04pm, STATIC, random_0, true, RIGHT, 2705, 0, 1, 0, 1
35,2018-07-29 03:48:10pm, STATIC, random_0, false, LEFT, 3342, 1, 0, 0, 1
36,2018-07-29 03:48:12pm, STATIC, random_0, false, LEFT, 3487, 1, 0, 0, 1
37,2018-07-29 03:48:14pm, STATIC, random_0, false, LEFT, 3056, 1, 1, 1, 1
38,2018-07-29 03:48:17pm, STATIC, random_0, false, LEFT, 2749, 1, 0, 0, 1
39,2018-07-29 03:48:20pm, STATIC, random_0, false, LEFT, 2641, 0, 0, 0, 0
40,2018-07-29 03:48:22pm, STATIC, random_0, true, RIGHT, 2673, 0, 0, 0, 0
41,2018-07-29 03:48:25pm, STATIC, random_0, false, LEFT, 2700, 0, 0, 0, 0
42,2018-07-29 03:48:27pm, STATIC, random_0, false, LEFT, 2611, 0, 0, 0, 0
43,2018-07-29 03:48:28pm, STATIC, random_0, false, LEFT, 2765, 0, 0, 0, 0
44,2018-07-29 03:48:30pm, STATIC, random_0, true, RIGHT, 2514, 1, 1, 1, 1
45,2018-07-29 03:48:33pm, STATIC, random_0, true, RIGHT, 2736, 1, 0, 1, 0
46,2018-07-29 03:48:40pm, STATIC, random_0, true, RIGHT, 2597, 0, 1, 0, 1
47,2018-07-29 03:48:41pm, STATIC, random_0, true, RIGHT, 3193, 0, 0, 0, 0
48,2018-07-29 03:48:42pm, STATIC, random_0, false, LEFT, 3029, 0, 0, 0, 0
49,2018-07-29 03:48:46pm, STATIC, random_0, false, LEFT, 2939, 1, 0, 0, 1
50,2018-07-29 03:48:47pm, STATIC, random_0, true, RIGHT, 2686, 1, 1, 1, 1
51,2018-07-29 03:48:51pm, STATIC, random_0, false, LEFT, 3869, 0, 0, 0, 0
52,2018-07-29 03:48:54pm, STATIC, random_0, true, RIGHT, 2654, 0, 1, 0, 1
53,2018-07-29 03:48:57pm, STATIC, random_0, false, LEFT, 2752, 0, 0, 0, 0
54,2018-07-29 03:49:01pm, STATIC, random_0, false, LEFT, 3882, 0, 1, 1, 0
55,2018-07-29 03:49:03pm, STATIC, random_0, true, RIGHT, 2917, 0, 0, 0, 0
56,2018-07-29 03:49:07pm, STATIC, random_0, true, RIGHT, 3699, 0, 0, 0, 0
57,2018-07-29 03:49:12pm, STATIC, random_0, false, LEFT, 2692, 0, 0, 0, 0
58,2018-07-29 03:49:13pm, STATIC, random_0, true, RIGHT, 3507, 0, 1, 0, 1
59,2018-07-29 03:49:16pm, STATIC, random_0, true, RIGHT, 3003, 1, 1, 1, 1
60,2018-07-29 03:49:21pm, STATIC, random_0, true, RIGHT, 2604, 1, 1, 1, 1
61,2018-07-29 03:49:22pm, STATIC, random_0, true, RIGHT, 2602, 0, 1, 0, 1
62,2018-07-29 03:49:25pm, STATIC, random_0, false, LEFT, 3455, 0, 1, 1, 0
63,2018-07-29 03:49:28pm, STATIC, random_0, false, LEFT, 3035, 0, 1, 1, 0
64,2018-07-29 03:49:31pm, STATIC, random_0, true, RIGHT, 2836, 0, 1, 0, 1
65,2018-07-29 03:49:35pm, STATIC, random_0, true, RIGHT, 3570, 0, 1, 0, 1
66,2018-07-29 03:49:39pm, STATIC, random_0, false, LEFT, 3195, 0, 0, 0, 0
67,2018-07-29 03:49:41pm, STATIC, random_0, true, RIGHT, 2946, 1, 0, 1, 0
68,2018-07-29 03:49:46pm, STATIC, random_0, true, RIGHT, 3835, 1, 0, 1, 0
69,2018-07-29 03:49:48pm, STATIC, random_0, true, RIGHT, 3287, 1, 0, 1, 0
70,2018-07-29 03:49:51pm, STATIC, random_0, true, RIGHT, 3760, 0, 0, 0, 0
71,2018-07-29 03:49:55pm, STATIC, random_0, true, RIGHT, 3367, 1, 0, 1, 0
72,2018-07-29 03:50:00pm, STATIC, random_0, true, RIGHT, 3877, 1, 0, 1, 0
73,2018-07-29 03:50:02pm, STATIC, random_0, true, RIGHT, 2913, 0, 0, 0, 0
74,2018-07-29 03:50:06pm, STATIC, random_0, false, LEFT, 3010, 0, 1, 1, 0
75,2018-07-29 03:50:08pm, STATIC, random_0, true, RIGHT, 3411, 0, 0, 0, 0
76,2018-07-29 03:50:13pm, STATIC, random_0, true, RIGHT, 2912, 0, 0, 0, 0
77,2018-07-29 03:50:13pm, STATIC, random_0, true, RIGHT, 2580, 0, 0, 0, 0
78,2018-07-29 03:50:16pm, STATIC, random_0, true, RIGHT, 2854, 0, 0, 0, 0
79,2018-07-29 03:50:20pm, STATIC, random_0, false, LEFT, 3749, 0, 0, 0, 0
80,2018-07-29 03:50:23pm, STATIC, random_0, true, RIGHT, 2799, 0, 0, 0, 0
81,2018-07-29 03:50:26pm, STATIC, random_0, true, RIGHT, 2680, 0, 0, 0, 0
82,2018-07-29 03:50:28pm, STATIC, random_0, false, LEFT, 2784, 0, 0, 0, 0
83,2018-07-29 03:50:32pm, STATIC, random_0, true, RIGHT, 3204, 1, 0, 1, 0
84,2018-07-29 03:50:35pm, STATIC, random_0, true, RIGHT, 2939, 0, 0, 0, 0
85,2018-07-29 03:50:37pm, STATIC, random_0, false, LEFT, 2526, 1, 0, 0, 1
86,2018-07-29 03:50:40pm, STATIC, random_0, false, LEFT, 2693, 1, 0, 0, 1
87,2018-07-29 03:50:42pm, STATIC, random_0, false, LEFT, 2771, 0, 0, 0, 0
88,2018-07-29 03:50:45pm, STATIC, random_0, true, RIGHT, 2950, 0, 0, 0, 0
89,2018-07-29 03:50:48pm, STATIC, random_0, false, LEFT, 2690, 0, 1, 1, 0
90,2018-07-29 03:50:56pm, STATIC, random_0, false, LEFT, 3758, 0, 0, 0, 0
91,2018-07-29 03:50:58pm, STATIC, random_0, true, RIGHT, 2612, 0, 0, 0, 0
92,2018-07-29 03:51:01pm, STATIC, random_0, true, RIGHT, 2638, 0, 0, 0, 0
93,2018-07-29 03:51:02pm, STATIC, random_0, true, RIGHT, 3399, 0, 0, 0, 0
94,2018-07-29 03:51:04pm, STATIC, random_0, false, LEFT, 3185, 0, 1, 1, 0
95,2018-07-29 03:51:06pm, STATIC, random_0, true, RIGHT, 2774, 0, 0, 0, 0
96,2018-07-29 03:51:09pm, STATIC, random_0, false, LEFT, 2604, 0, 0, 0, 0
97,2018-07-29 03:51:12pm, STATIC, random_0, true, RIGHT, 2623, 0, 0, 0, 0
98,2018-07-29 03:51:14pm, STATIC, random_0, false, LEFT, 2684, 0, 1, 1, 0
