[{"RT":9593,"time": "2018-08-15 03:30:13pm", "schedule_type": "STATIC", "schedule_name": "random_0", "is_biased_choice":true,"side_choice": "LEFT", "trial_number":0,"observed_reward":0,"unobserved_reward":1},{"RT":6535,"time": "2018-08-15 03:30:20pm", "schedule_type": "STATIC", "schedule_name": "random_0", "is_biased_choice":false,"side_choice": "RIGHT", "trial_number":1,"observed_reward":1,"unobserved_reward":0},{"RT":4976,"time": "2018-08-15 03:30:25pm", "schedule_type": "STATIC", "schedule_name": "random_0", "is_biased_choice":false,"side_choice": "RIGHT", "trial_number":2,"observed_reward":1,"unobserved_reward":0},{"RT":6447,"time": "2018-08-15 03:30:31pm", "schedule_type": "STATIC", "schedule_name": "random_0", "is_biased_choice":false,"side_choice": "RIGHT", "trial_number":3,"observed_reward":0,"unobserved_reward":0},{"RT":4288,"time": "2018-08-15 03:30:35pm", "schedule_type": "STATIC", "schedule_name": "random_0", "is_biased_choice":false,"side_choice": "RIGHT", "trial_number":4,"observed_reward":0,"unobserved_reward":0},{"RT":3456,"time": "2018-08-15 03:30:39pm", "schedule_type": "STATIC", "schedule_name": "random_0", "is_biased_choice":true,"side_choice": "LEFT", "trial_number":5,"observed_reward":1,"unobserved_reward":0},{"RT":3904,"time": "2018-08-15 03:30:43pm", "schedule_type": "STATIC", "schedule_name": "random_0", "is_biased_choice":true,"side_choice": "LEFT", "trial_number":6,"observed_reward":0,"unobserved_reward":0},{"RT":2769,"time": "2018-08-15 03:30:46pm", "schedule_type": "STATIC", "schedule_name": "random_0", "is_biased_choice":false,"side_choice": "RIGHT", "trial_number":7,"observed_reward":0,"unobserved_reward":0},{"RT":2759,"time": "2018-08-15 03:30:48pm", "schedule_type": "STATIC", "schedule_name": "random_0", "is_biased_choice":true,"side_choice": "LEFT", "trial_number":8,"observed_reward":1,"unobserved_reward":0},{"RT":3263,"time": "2018-08-15 03:30:52pm", "schedule_type": "STATIC", "schedule_name": "random_0", "is_biased_choice":false,"side_choice": "RIGHT", "trial_number":9,"observed_reward":0,"unobserved_reward":0},{"RT":2713,"time": "2018-08-15 03:30:54pm", "schedule_type": "STATIC", "schedule_name": "random_0", "is_biased_choice":true,"side_choice": "LEFT", "trial_number":10,"observed_reward":0,"unobserved_reward":0},{"RT":2528,"time": "2018-08-15 03:30:57pm", "schedule_type": "STATIC", "schedule_name": "random_0", "is_biased_choice":false,"side_choice": "RIGHT", "trial_number":11,"observed_reward":0,"unobserved_reward":1},{"RT":3096,"time": "2018-08-15 03:31:00pm", "schedule_type": "STATIC", "schedule_name": "random_0", "is_biased_choice":false,"side_choice": "RIGHT", "trial_number":12,"observed_reward":0,"unobserved_reward":0},{"RT":2632,"time": "2018-08-15 03:31:02pm", "schedule_type": "STATIC", "schedule_name": "random_0", "is_biased_choice":true,"side_choice": "LEFT", "trial_number":13,"observed_reward":0,"unobserved_reward":1},{"RT":2584,"time": "2018-08-15 03:31:05pm", "schedule_type": "STATIC", "schedule_name": "random_0", "is_biased_choice":false,"side_choice": "RIGHT", "trial_number":14,"observed_reward":1,"unobserved_reward":0},{"RT":3665,"time": "2018-08-15 03:31:09pm", "schedule_type": "STATIC", "schedule_name": "random_0", "is_biased_choice":false,"side_choice": "RIGHT", "trial_number":15,"observed_reward":0,"unobserved_reward":0},{"RT":2638,"time": "2018-08-15 03:31:11pm", "schedule_type": "STATIC", "schedule_name": "random_0", "is_biased_choice":true,"side_choice": "LEFT", "trial_number":16,"observed_reward":0,"unobserved_reward":1},{"RT":2434,"time": "2018-08-15 03:31:14pm", "schedule_type": "STATIC", "schedule_name": "random_0", "is_biased_choice":false,"side_choice": "RIGHT", "trial_number":17,"observed_reward":0,"unobserved_reward":0},{"RT":2536,"time": "2018-08-15 03:31:16pm", "schedule_type": "STATIC", "schedule_name": "random_0", "is_biased_choice":false,"side_choice": "RIGHT", "trial_number":18,"observed_reward":0,"unobserved_reward":0},{"RT":2583,"time": "2018-08-15 03:31:19pm", "schedule_type": "STATIC", "schedule_name": "random_0", "is_biased_choice":true,"side_choice": "LEFT", "trial_number":19,"observed_reward":1,"unobserved_reward":0},{"RT":4056,"time": "2018-08-15 03:31:23pm", "schedule_type": "STATIC", "schedule_name": "random_0", "is_biased_choice":false,"side_choice": "RIGHT", "trial_number":20,"observed_reward":1,"unobserved_reward":1},{"RT":2759,"time": "2018-08-15 03:31:26pm", "schedule_type": "STATIC", "schedule_name": "random_0", "is_biased_choice":true,"side_choice": "LEFT", "trial_number":21,"observed_reward":0,"unobserved_reward":0},{"RT":2570,"time": "2018-08-15 03:31:28pm", "schedule_type": "STATIC", "schedule_name": "random_0", "is_biased_choice":false,"side_choice": "RIGHT", "trial_number":22,"observed_reward":0,"unobserved_reward":0},{"RT":2455,"time": "2018-08-15 03:31:31pm", "schedule_type": "STATIC", "schedule_name": "random_0", "is_biased_choice":false,"side_choice": "RIGHT", "trial_number":23,"observed_reward":0,"unobserved_reward":0},{"RT":2592,"time": "2018-08-15 03:31:33pm", "schedule_type": "STATIC", "schedule_name": "random_0", "is_biased_choice":true,"side_choice": "LEFT", "trial_number":24,"observed_reward":0,"unobserved_reward":0},{"RT":2448,"time": "2018-08-15 03:31:36pm", "schedule_type": "STATIC", "schedule_name": "random_0", "is_biased_choice":false,"side_choice": "RIGHT", "trial_number":25,"observed_reward":0,"unobserved_reward":0},{"RT":2560,"time": "2018-08-15 03:31:38pm", "schedule_type": "STATIC", "schedule_name": "random_0", "is_biased_choice":true,"side_choice": "LEFT", "trial_number":26,"observed_reward":0,"unobserved_reward":0},{"RT":2591,"time": "2018-08-15 03:31:41pm", "schedule_type": "STATIC", "schedule_name": "random_0", "is_biased_choice":true,"side_choice": "LEFT", "trial_number":27,"observed_reward":1,"unobserved_reward":0},{"RT":2720,"time": "2018-08-15 03:31:44pm", "schedule_type": "STATIC", "schedule_name": "random_0", "is_biased_choice":false,"side_choice": "RIGHT", "trial_number":28,"observed_reward":0,"unobserved_reward":0},{"RT":3138,"time": "2018-08-15 03:31:47pm", "schedule_type": "STATIC", "schedule_name": "random_0", "is_biased_choice":true,"side_choice": "LEFT", "trial_number":29,"observed_reward":0,"unobserved_reward":0},{"RT":3365,"time": "2018-08-15 03:31:50pm", "schedule_type": "STATIC", "schedule_name": "random_0", "is_biased_choice":true,"side_choice": "LEFT", "trial_number":30,"observed_reward":0,"unobserved_reward":0},{"RT":2465,"time": "2018-08-15 03:31:53pm", "schedule_type": "STATIC", "schedule_name": "random_0", "is_biased_choice":false,"side_choice": "RIGHT", "trial_number":31,"observed_reward":0,"unobserved_reward":0},{"RT":4576,"time": "2018-08-15 03:31:57pm", "schedule_type": "STATIC", "schedule_name": "random_0", "is_biased_choice":true,"side_choice": "LEFT", "trial_number":32,"observed_reward":0,"unobserved_reward":0},{"RT":5320,"time": "2018-08-15 03:32:02pm", "schedule_type": "STATIC", "schedule_name": "random_0", "is_biased_choice":false,"side_choice": "RIGHT", "trial_number":33,"observed_reward":0,"unobserved_reward":0},{"RT":2712,"time": "2018-08-15 03:32:05pm", "schedule_type": "STATIC", "schedule_name": "random_0", "is_biased_choice":true,"side_choice": "LEFT", "trial_number":34,"observed_reward":0,"unobserved_reward":1},{"RT":2376,"time": "2018-08-15 03:32:08pm", "schedule_type": "STATIC", "schedule_name": "random_0", "is_biased_choice":false,"side_choice": "RIGHT", "trial_number":35,"observed_reward":1,"unobserved_reward":0},{"RT":3433,"time": "2018-08-15 03:32:11pm", "schedule_type": "STATIC", "schedule_name": "random_0", "is_biased_choice":true,"side_choice": "LEFT", "trial_number":36,"observed_reward":0,"unobserved_reward":1},{"RT":2487,"time": "2018-08-15 03:32:14pm", "schedule_type": "STATIC", "schedule_name": "random_0", "is_biased_choice":true,"side_choice": "LEFT", "trial_number":37,"observed_reward":1,"unobserved_reward":1},{"RT":2545,"time": "2018-08-15 03:32:16pm", "schedule_type": "STATIC", "schedule_name": "random_0", "is_biased_choice":false,"side_choice": "RIGHT", "trial_number":38,"observed_reward":1,"unobserved_reward":0},{"RT":3039,"time": "2018-08-15 03:32:19pm", "schedule_type": "STATIC", "schedule_name": "random_0", "is_biased_choice":false,"side_choice": "RIGHT", "trial_number":39,"observed_reward":0,"unobserved_reward":0},{"RT":2386,"time": "2018-08-15 03:32:22pm", "schedule_type": "STATIC", "schedule_name": "random_0", "is_biased_choice":true,"side_choice": "LEFT", "trial_number":40,"observed_reward":0,"unobserved_reward":0},{"RT":2535,"time": "2018-08-15 03:32:24pm", "schedule_type": "STATIC", "schedule_name": "random_0", "is_biased_choice":true,"side_choice": "LEFT", "trial_number":41,"observed_reward":0,"unobserved_reward":0},{"RT":2592,"time": "2018-08-15 03:32:27pm", "schedule_type": "STATIC", "schedule_name": "random_0", "is_biased_choice":false,"side_choice": "RIGHT", "trial_number":42,"observed_reward":0,"unobserved_reward":0},{"RT":2623,"time": "2018-08-15 03:32:29pm", "schedule_type": "STATIC", "schedule_name": "random_0", "is_biased_choice":true,"side_choice": "LEFT", "trial_number":43,"observed_reward":0,"unobserved_reward":0},{"RT":2400,"time": "2018-08-15 03:32:32pm", "schedule_type": "STATIC", "schedule_name": "random_0", "is_biased_choice":false,"side_choice": "RIGHT", "trial_number":44,"observed_reward":1,"unobserved_reward":1},{"RT":2553,"time": "2018-08-15 03:32:34pm", "schedule_type": "STATIC", "schedule_name": "random_0", "is_biased_choice":true,"side_choice": "LEFT", "trial_number":45,"observed_reward":1,"unobserved_reward":0},{"RT":2895,"time": "2018-08-15 03:32:37pm", "schedule_type": "STATIC", "schedule_name": "random_0", "is_biased_choice":true,"side_choice": "LEFT", "trial_number":46,"observed_reward":0,"unobserved_reward":1},{"RT":2400,"time": "2018-08-15 03:32:40pm", "schedule_type": "STATIC", "schedule_name": "random_0", "is_biased_choice":false,"side_choice": "RIGHT", "trial_number":47,"observed_reward":0,"unobserved_reward":0},{"RT":2985,"time": "2018-08-15 03:32:42pm", "schedule_type": "STATIC", "schedule_name": "random_0", "is_biased_choice":false,"side_choice": "RIGHT", "trial_number":48,"observed_reward":0,"unobserved_reward":0},{"RT":2319,"time": "2018-08-15 03:32:45pm", "schedule_type": "STATIC", "schedule_name": "random_0", "is_biased_choice":true,"side_choice": "LEFT", "trial_number":49,"observed_reward":0,"unobserved_reward":1},{"RT":2328,"time": "2018-08-15 03:32:47pm", "schedule_type": "STATIC", "schedule_name": "random_0", "is_biased_choice":false,"side_choice": "RIGHT", "trial_number":50,"observed_reward":1,"unobserved_reward":1},{"RT":2831,"time": "2018-08-15 03:32:50pm", "schedule_type": "STATIC", "schedule_name": "random_0", "is_biased_choice":true,"side_choice": "LEFT", "trial_number":51,"observed_reward":0,"unobserved_reward":0},{"RT":2521,"time": "2018-08-15 03:32:53pm", "schedule_type": "STATIC", "schedule_name": "random_0", "is_biased_choice":true,"side_choice": "LEFT", "trial_number":52,"observed_reward":0,"unobserved_reward":1},{"RT":2727,"time": "2018-08-15 03:32:55pm", "schedule_type": "STATIC", "schedule_name": "random_0", "is_biased_choice":false,"side_choice": "RIGHT", "trial_number":53,"observed_reward":0,"unobserved_reward":0},{"RT":2473,"time": "2018-08-15 03:32:58pm", "schedule_type": "STATIC", "schedule_name": "random_0", "is_biased_choice":true,"side_choice": "LEFT", "trial_number":54,"observed_reward":1,"unobserved_reward":0},{"RT":2632,"time": "2018-08-15 03:33:00pm", "schedule_type": "STATIC", "schedule_name": "random_0", "is_biased_choice":false,"side_choice": "RIGHT", "trial_number":55,"observed_reward":0,"unobserved_reward":0},{"RT":2376,"time": "2018-08-15 03:33:03pm", "schedule_type": "STATIC", "schedule_name": "random_0", "is_biased_choice":true,"side_choice": "LEFT", "trial_number":56,"observed_reward":0,"unobserved_reward":0},{"RT":2497,"time": "2018-08-15 03:33:05pm", "schedule_type": "STATIC", "schedule_name": "random_0", "is_biased_choice":false,"side_choice": "RIGHT", "trial_number":57,"observed_reward":0,"unobserved_reward":0},{"RT":2248,"time": "2018-08-15 03:33:08pm", "schedule_type": "STATIC", "schedule_name": "random_0", "is_biased_choice":true,"side_choice": "LEFT", "trial_number":58,"observed_reward":0,"unobserved_reward":1},{"RT":2744,"time": "2018-08-15 03:33:10pm", "schedule_type": "STATIC", "schedule_name": "random_0", "is_biased_choice":false,"side_choice": "RIGHT", "trial_number":59,"observed_reward":1,"unobserved_reward":1},{"RT":3039,"time": "2018-08-15 03:33:13pm", "schedule_type": "STATIC", "schedule_name": "random_0", "is_biased_choice":false,"side_choice": "RIGHT", "trial_number":60,"observed_reward":1,"unobserved_reward":1},{"RT":2457,"time": "2018-08-15 03:33:16pm", "schedule_type": "STATIC", "schedule_name": "random_0", "is_biased_choice":true,"side_choice": "LEFT", "trial_number":61,"observed_reward":0,"unobserved_reward":1},{"RT":2694,"time": "2018-08-15 03:33:18pm", "schedule_type": "STATIC", "schedule_name": "random_0", "is_biased_choice":true,"side_choice": "LEFT", "trial_number":62,"observed_reward":1,"unobserved_reward":0},{"RT":2769,"time": "2018-08-15 03:33:21pm", "schedule_type": "STATIC", "schedule_name": "random_0", "is_biased_choice":true,"side_choice": "LEFT", "trial_number":63,"observed_reward":1,"unobserved_reward":0},{"RT":3233,"time": "2018-08-15 03:33:24pm", "schedule_type": "STATIC", "schedule_name": "random_0", "is_biased_choice":true,"side_choice": "LEFT", "trial_number":64,"observed_reward":0,"unobserved_reward":1},{"RT":2566,"time": "2018-08-15 03:33:27pm", "schedule_type": "STATIC", "schedule_name": "random_0", "is_biased_choice":false,"side_choice": "RIGHT", "trial_number":65,"observed_reward":1,"unobserved_reward":0},{"RT":2729,"time": "2018-08-15 03:33:30pm", "schedule_type": "STATIC", "schedule_name": "random_0", "is_biased_choice":true,"side_choice": "LEFT", "trial_number":66,"observed_reward":0,"unobserved_reward":0},{"RT":3159,"time": "2018-08-15 03:33:33pm", "schedule_type": "STATIC", "schedule_name": "random_0", "is_biased_choice":true,"side_choice": "LEFT", "trial_number":67,"observed_reward":1,"unobserved_reward":0},{"RT":2944,"time": "2018-08-15 03:33:36pm", "schedule_type": "STATIC", "schedule_name": "random_0", "is_biased_choice":true,"side_choice": "LEFT", "trial_number":68,"observed_reward":1,"unobserved_reward":0},{"RT":3016,"time": "2018-08-15 03:33:39pm", "schedule_type": "STATIC", "schedule_name": "random_0", "is_biased_choice":true,"side_choice": "LEFT", "trial_number":69,"observed_reward":1,"unobserved_reward":0},{"RT":2688,"time": "2018-08-15 03:33:42pm", "schedule_type": "STATIC", "schedule_name": "random_0", "is_biased_choice":true,"side_choice": "LEFT", "trial_number":70,"observed_reward":0,"unobserved_reward":0},{"RT":2400,"time": "2018-08-15 03:33:44pm", "schedule_type": "STATIC", "schedule_name": "random_0", "is_biased_choice":true,"side_choice": "LEFT", "trial_number":71,"observed_reward":1,"unobserved_reward":0},{"RT":2904,"time": "2018-08-15 03:33:47pm", "schedule_type": "STATIC", "schedule_name": "random_0", "is_biased_choice":true,"side_choice": "LEFT", "trial_number":72,"observed_reward":1,"unobserved_reward":0},{"RT":2496,"time": "2018-08-15 03:33:49pm", "schedule_type": "STATIC", "schedule_name": "random_0", "is_biased_choice":true,"side_choice": "LEFT", "trial_number":73,"observed_reward":0,"unobserved_reward":0},{"RT":3057,"time": "2018-08-15 03:33:52pm", "schedule_type": "STATIC", "schedule_name": "random_0", "is_biased_choice":false,"side_choice": "RIGHT", "trial_number":74,"observed_reward":0,"unobserved_reward":1},{"RT":2561,"time": "2018-08-15 03:33:55pm", "schedule_type": "STATIC", "schedule_name": "random_0", "is_biased_choice":true,"side_choice": "LEFT", "trial_number":75,"observed_reward":0,"unobserved_reward":0},{"RT":3158,"time": "2018-08-15 03:33:58pm", "schedule_type": "STATIC", "schedule_name": "random_0", "is_biased_choice":true,"side_choice": "LEFT", "trial_number":76,"observed_reward":0,"unobserved_reward":0},{"RT":2799,"time": "2018-08-15 03:34:01pm", "schedule_type": "STATIC", "schedule_name": "random_0", "is_biased_choice":false,"side_choice": "RIGHT", "trial_number":77,"observed_reward":0,"unobserved_reward":0},{"RT":3330,"time": "2018-08-15 03:34:04pm", "schedule_type": "STATIC", "schedule_name": "random_0", "is_biased_choice":true,"side_choice": "LEFT", "trial_number":78,"observed_reward":0,"unobserved_reward":0},{"RT":2662,"time": "2018-08-15 03:34:07pm", "schedule_type": "STATIC", "schedule_name": "random_0", "is_biased_choice":true,"side_choice": "LEFT", "trial_number":79,"observed_reward":0,"unobserved_reward":0},{"RT":2320,"time": "2018-08-15 03:34:09pm", "schedule_type": "STATIC", "schedule_name": "random_0", "is_biased_choice":false,"side_choice": "RIGHT", "trial_number":80,"observed_reward":0,"unobserved_reward":0},{"RT":2369,"time": "2018-08-15 03:34:12pm", "schedule_type": "STATIC", "schedule_name": "random_0", "is_biased_choice":true,"side_choice": "LEFT", "trial_number":81,"observed_reward":0,"unobserved_reward":0},{"RT":2456,"time": "2018-08-15 03:34:14pm", "schedule_type": "STATIC", "schedule_name": "random_0", "is_biased_choice":false,"side_choice": "RIGHT", "trial_number":82,"observed_reward":0,"unobserved_reward":0},{"RT":2337,"time": "2018-08-15 03:34:16pm", "schedule_type": "STATIC", "schedule_name": "random_0", "is_biased_choice":true,"side_choice": "LEFT", "trial_number":83,"observed_reward":1,"unobserved_reward":0},{"RT":2575,"time": "2018-08-15 03:34:19pm", "schedule_type": "STATIC", "schedule_name": "random_0", "is_biased_choice":false,"side_choice": "RIGHT", "trial_number":84,"observed_reward":0,"unobserved_reward":0},{"RT":2311,"time": "2018-08-15 03:34:21pm", "schedule_type": "STATIC", "schedule_name": "random_0", "is_biased_choice":true,"side_choice": "LEFT", "trial_number":85,"observed_reward":0,"unobserved_reward":1},{"RT":2441,"time": "2018-08-15 03:34:24pm", "schedule_type": "STATIC", "schedule_name": "random_0", "is_biased_choice":true,"side_choice": "LEFT", "trial_number":86,"observed_reward":0,"unobserved_reward":1},{"RT":2384,"time": "2018-08-15 03:34:26pm", "schedule_type": "STATIC", "schedule_name": "random_0", "is_biased_choice":true,"side_choice": "LEFT", "trial_number":87,"observed_reward":0,"unobserved_reward":0},{"RT":2273,"time": "2018-08-15 03:34:28pm", "schedule_type": "STATIC", "schedule_name": "random_0", "is_biased_choice":true,"side_choice": "LEFT", "trial_number":88,"observed_reward":0,"unobserved_reward":0},{"RT":2287,"time": "2018-08-15 03:34:31pm", "schedule_type": "STATIC", "schedule_name": "random_0", "is_biased_choice":true,"side_choice": "LEFT", "trial_number":89,"observed_reward":1,"unobserved_reward":0},{"RT":2358,"time": "2018-08-15 03:34:33pm", "schedule_type": "STATIC", "schedule_name": "random_0", "is_biased_choice":true,"side_choice": "LEFT", "trial_number":90,"observed_reward":0,"unobserved_reward":0},{"RT":2417,"time": "2018-08-15 03:34:35pm", "schedule_type": "STATIC", "schedule_name": "random_0", "is_biased_choice":true,"side_choice": "LEFT", "trial_number":91,"observed_reward":0,"unobserved_reward":0},{"RT":2681,"time": "2018-08-15 03:34:38pm", "schedule_type": "STATIC", "schedule_name": "random_0", "is_biased_choice":false,"side_choice": "RIGHT", "trial_number":92,"observed_reward":0,"unobserved_reward":0},{"RT":2400,"time": "2018-08-15 03:34:41pm", "schedule_type": "STATIC", "schedule_name": "random_0", "is_biased_choice":false,"side_choice": "RIGHT", "trial_number":93,"observed_reward":0,"unobserved_reward":0},{"RT":2366,"time": "2018-08-15 03:34:43pm", "schedule_type": "STATIC", "schedule_name": "random_0", "is_biased_choice":false,"side_choice": "RIGHT", "trial_number":94,"observed_reward":0,"unobserved_reward":1},{"RT":2353,"time": "2018-08-15 03:34:45pm", "schedule_type": "STATIC", "schedule_name": "random_0", "is_biased_choice":false,"side_choice": "RIGHT", "trial_number":95,"observed_reward":0,"unobserved_reward":0},{"RT":2584,"time": "2018-08-15 03:34:48pm", "schedule_type": "STATIC", "schedule_name": "random_0", "is_biased_choice":false,"side_choice": "RIGHT", "trial_number":96,"observed_reward":0,"unobserved_reward":0},{"RT":2328,"time": "2018-08-15 03:34:50pm", "schedule_type": "STATIC", "schedule_name": "random_0", "is_biased_choice":true,"side_choice": "LEFT", "trial_number":97,"observed_reward":0,"unobserved_reward":0},{"RT":2360,"time": "2018-08-15 03:34:52pm", "schedule_type": "STATIC", "schedule_name": "random_0", "is_biased_choice":true,"side_choice": "LEFT", "trial_number":98,"observed_reward":1,"unobserved_reward":0},