trial_number, time, schedule_type, schedule_name, is_biased_choice, side_choice, RT, observed_reward, unobserved_reward, biased_reward, unbiased_reward
0,2018-08-23 04:46:45pm, dynamic, 1_6_vs_2_6, false, LEFT, 3570, 0, 0, 0, 0
1,2018-08-23 04:46:48pm, dynamic, 1_6_vs_2_6, true, RIGHT, 3025, 0, 0, 0, 0
2,2018-08-23 04:47:02pm, dynamic, 1_6_vs_2_6, false, LEFT, 13124, 1, 0, 0, 1
3,2018-08-23 04:47:04pm, dynamic, 1_6_vs_2_6, true, RIGHT, 2817, 0, 0, 0, 0
4,2018-08-23 04:47:07pm, dynamic, 1_6_vs_2_6, false, LEFT, 2502, 0, 0, 0, 0
5,2018-08-23 04:47:10pm, dynamic, 1_6_vs_2_6, true, RIGHT, 2986, 1, 0, 1, 0
6,2018-08-23 04:47:12pm, dynamic, 1_6_vs_2_6, true, RIGHT, 2533, 1, 0, 1, 0
7,2018-08-23 04:47:15pm, dynamic, 1_6_vs_2_6, true, RIGHT, 2696, 0, 0, 0, 0
8,2018-08-23 04:47:18pm, dynamic, 1_6_vs_2_6, false, LEFT, 2711, 0, 0, 0, 0
9,2018-08-23 04:47:22pm, dynamic, 1_6_vs_2_6, true, RIGHT, 4043, 1, 0, 1, 0
10,2018-08-23 04:47:25pm, dynamic, 1_6_vs_2_6, false, LEFT, 2956, 0, 1, 1, 0
11,2018-08-23 04:47:27pm, dynamic, 1_6_vs_2_6, true, RIGHT, 2600, 1, 0, 1, 0
12,2018-08-23 04:47:30pm, dynamic, 1_6_vs_2_6, false, LEFT, 3017, 0, 0, 0, 0
13,2018-08-23 04:47:34pm, dynamic, 1_6_vs_2_6, true, RIGHT, 3678, 0, 1, 0, 1
14,2018-08-23 04:47:39pm, dynamic, 1_6_vs_2_6, true, RIGHT, 4544, 1, 0, 1, 0
15,2018-08-23 04:47:41pm, dynamic, 1_6_vs_2_6, true, RIGHT, 2487, 0, 1, 0, 1
16,2018-08-23 04:47:44pm, dynamic, 1_6_vs_2_6, true, RIGHT, 2695, 0, 0, 0, 0
17,2018-08-23 04:47:46pm, dynamic, 1_6_vs_2_6, true, RIGHT, 2343, 0, 0, 0, 0
18,2018-08-23 04:47:48pm, dynamic, 1_6_vs_2_6, false, LEFT, 2449, 0, 0, 0, 0
19,2018-08-23 04:47:51pm, dynamic, 1_6_vs_2_6, true, RIGHT, 2384, 0, 1, 0, 1
20,2018-08-23 04:47:53pm, dynamic, 1_6_vs_2_6, false, LEFT, 2575, 0, 1, 1, 0
21,2018-08-23 04:47:56pm, dynamic, 1_6_vs_2_6, true, RIGHT, 2417, 1, 0, 1, 0
22,2018-08-23 04:47:58pm, dynamic, 1_6_vs_2_6, true, RIGHT, 2694, 0, 0, 0, 0
23,2018-08-23 04:48:01pm, dynamic, 1_6_vs_2_6, true, RIGHT, 2344, 1, 0, 1, 0
24,2018-08-23 04:48:03pm, dynamic, 1_6_vs_2_6, true, RIGHT, 2392, 1, 0, 1, 0
25,2018-08-23 04:48:07pm, dynamic, 1_6_vs_2_6, true, RIGHT, 3359, 0, 0, 0, 0
26,2018-08-23 04:48:09pm, dynamic, 1_6_vs_2_6, true, RIGHT, 2361, 0, 0, 0, 0
27,2018-08-23 04:48:11pm, dynamic, 1_6_vs_2_6, false, LEFT, 2455, 0, 0, 0, 0
28,2018-08-23 04:48:14pm, dynamic, 1_6_vs_2_6, true, RIGHT, 2526, 1, 0, 1, 0
29,2018-08-23 04:48:18pm, dynamic, 1_6_vs_2_6, true, RIGHT, 3921, 0, 0, 0, 0
30,2018-08-23 04:48:21pm, dynamic, 1_6_vs_2_6, true, RIGHT, 2897, 0, 0, 0, 0
31,2018-08-23 04:48:23pm, dynamic, 1_6_vs_2_6, false, LEFT, 2223, 0, 0, 0, 0
32,2018-08-23 04:48:25pm, dynamic, 1_6_vs_2_6, true, RIGHT, 2215, 0, 0, 0, 0
33,2018-08-23 04:48:31pm, dynamic, 1_6_vs_2_6, false, LEFT, 5151, 0, 1, 1, 0
34,2018-08-23 04:48:33pm, dynamic, 1_6_vs_2_6, true, RIGHT, 2751, 1, 0, 1, 0
35,2018-08-23 04:48:35pm, dynamic, 1_6_vs_2_6, true, RIGHT, 2232, 0, 0, 0, 0
36,2018-08-23 04:48:38pm, dynamic, 1_6_vs_2_6, true, RIGHT, 2840, 1, 0, 1, 0
37,2018-08-23 04:48:40pm, dynamic, 1_6_vs_2_6, true, RIGHT, 2288, 1, 0, 1, 0
38,2018-08-23 04:48:43pm, dynamic, 1_6_vs_2_6, true, RIGHT, 2752, 1, 0, 1, 0
39,2018-08-23 04:48:45pm, dynamic, 1_6_vs_2_6, true, RIGHT, 2143, 0, 0, 0, 0
40,2018-08-23 04:48:48pm, dynamic, 1_6_vs_2_6, false, LEFT, 2745, 0, 0, 0, 0
41,2018-08-23 04:48:51pm, dynamic, 1_6_vs_2_6, true, RIGHT, 3062, 0, 1, 0, 1
42,2018-08-23 04:48:53pm, dynamic, 1_6_vs_2_6, true, RIGHT, 2352, 1, 0, 1, 0
43,2018-08-23 04:48:56pm, dynamic, 1_6_vs_2_6, true, RIGHT, 2426, 1, 0, 1, 0
44,2018-08-23 04:48:58pm, dynamic, 1_6_vs_2_6, true, RIGHT, 2477, 0, 0, 0, 0
45,2018-08-23 04:49:02pm, dynamic, 1_6_vs_2_6, true, RIGHT, 3184, 1, 0, 1, 0
46,2018-08-23 04:49:05pm, dynamic, 1_6_vs_2_6, true, RIGHT, 3000, 0, 0, 0, 0
47,2018-08-23 04:49:07pm, dynamic, 1_6_vs_2_6, true, RIGHT, 2647, 1, 1, 1, 1
48,2018-08-23 04:49:11pm, dynamic, 1_6_vs_2_6, true, RIGHT, 3224, 0, 0, 0, 0
49,2018-08-23 04:49:13pm, dynamic, 1_6_vs_2_6, true, RIGHT, 2272, 1, 1, 1, 1
50,2018-08-23 04:49:17pm, dynamic, 1_6_vs_2_6, true, RIGHT, 3991, 0, 0, 0, 0
51,2018-08-23 04:49:22pm, dynamic, 1_6_vs_2_6, true, RIGHT, 5176, 0, 0, 0, 0
52,2018-08-23 04:49:24pm, dynamic, 1_6_vs_2_6, false, LEFT, 2375, 0, 1, 1, 0
53,2018-08-23 04:49:34pm, dynamic, 1_6_vs_2_6, true, RIGHT, 9151, 0, 1, 0, 1
54,2018-08-23 04:49:37pm, dynamic, 1_6_vs_2_6, false, LEFT, 3335, 0, 0, 0, 0
55,2018-08-23 04:49:39pm, dynamic, 1_6_vs_2_6, true, RIGHT, 2442, 1, 0, 1, 0
56,2018-08-23 04:49:42pm, dynamic, 1_6_vs_2_6, true, RIGHT, 2918, 1, 0, 1, 0
57,2018-08-23 04:49:45pm, dynamic, 1_6_vs_2_6, true, RIGHT, 2752, 1, 1, 1, 1
58,2018-08-23 04:49:50pm, dynamic, 1_6_vs_2_6, true, RIGHT, 4462, 0, 0, 0, 0
59,2018-08-23 04:49:53pm, dynamic, 1_6_vs_2_6, true, RIGHT, 3629, 0, 0, 0, 0
60,2018-08-23 04:49:56pm, dynamic, 1_6_vs_2_6, true, RIGHT, 2962, 0, 0, 0, 0
61,2018-08-23 04:50:01pm, dynamic, 1_6_vs_2_6, true, RIGHT, 4505, 0, 1, 0, 1
62,2018-08-23 04:50:03pm, dynamic, 1_6_vs_2_6, false, LEFT, 2623, 0, 0, 0, 0
63,2018-08-23 04:50:06pm, dynamic, 1_6_vs_2_6, true, RIGHT, 2511, 0, 0, 0, 0
64,2018-08-23 04:50:08pm, dynamic, 1_6_vs_2_6, true, RIGHT, 2480, 0, 0, 0, 0
65,2018-08-23 04:50:11pm, dynamic, 1_6_vs_2_6, false, LEFT, 2785, 0, 0, 0, 0
66,2018-08-23 04:50:41pm, dynamic, 1_6_vs_2_6, true, RIGHT, 30459, 0, 0, 0, 0
67,2018-08-23 04:50:44pm, dynamic, 1_6_vs_2_6, false, LEFT, 2473, 0, 0, 0, 0
68,2018-08-23 04:50:46pm, dynamic, 1_6_vs_2_6, true, RIGHT, 2606, 0, 0, 0, 0
69,2018-08-23 04:50:49pm, dynamic, 1_6_vs_2_6, true, RIGHT, 2936, 0, 0, 0, 0
70,2018-08-23 04:50:52pm, dynamic, 1_6_vs_2_6, false, LEFT, 2400, 0, 0, 0, 0
71,2018-08-23 04:50:57pm, dynamic, 1_6_vs_2_6, true, RIGHT, 5231, 0, 0, 0, 0
72,2018-08-23 04:51:00pm, dynamic, 1_6_vs_2_6, true, RIGHT, 2752, 0, 0, 0, 0
73,2018-08-23 04:51:02pm, dynamic, 1_6_vs_2_6, false, LEFT, 2416, 0, 0, 0, 0
74,2018-08-23 04:51:04pm, dynamic, 1_6_vs_2_6, false, LEFT, 2344, 0, 0, 0, 0
75,2018-08-23 04:51:07pm, dynamic, 1_6_vs_2_6, false, LEFT, 2303, 0, 0, 0, 0
76,2018-08-23 04:51:09pm, dynamic, 1_6_vs_2_6, true, RIGHT, 2207, 0, 0, 0, 0
77,2018-08-23 04:51:11pm, dynamic, 1_6_vs_2_6, true, RIGHT, 2336, 0, 0, 0, 0
78,2018-08-23 04:51:14pm, dynamic, 1_6_vs_2_6, false, LEFT, 2416, 0, 0, 0, 0
79,2018-08-23 04:51:16pm, dynamic, 1_6_vs_2_6, true, RIGHT, 2191, 0, 0, 0, 0
80,2018-08-23 04:51:19pm, dynamic, 1_6_vs_2_6, false, LEFT, 2456, 0, 0, 0, 0
81,2018-08-23 04:51:20pm, dynamic, 1_6_vs_2_6, true, RIGHT, 2176, 0, 0, 0, 0
82,2018-08-23 04:51:23pm, dynamic, 1_6_vs_2_6, false, LEFT, 2439, 0, 0, 0, 0
83,2018-08-23 04:51:25pm, dynamic, 1_6_vs_2_6, true, RIGHT, 2176, 0, 1, 0, 1
84,2018-08-23 04:51:27pm, dynamic, 1_6_vs_2_6, false, LEFT, 2423, 0, 0, 0, 0
85,2018-08-23 04:51:30pm, dynamic, 1_6_vs_2_6, true, RIGHT, 2192, 0, 0, 0, 0
86,2018-08-23 04:51:32pm, dynamic, 1_6_vs_2_6, true, RIGHT, 2745, 0, 1, 0, 1
87,2018-08-23 04:51:35pm, dynamic, 1_6_vs_2_6, false, LEFT, 2919, 1, 0, 0, 1
88,2018-08-23 04:51:38pm, dynamic, 1_6_vs_2_6, false, LEFT, 2401, 1, 0, 0, 1
89,2018-08-23 04:51:40pm, dynamic, 1_6_vs_2_6, false, LEFT, 2494, 1, 0, 0, 1
90,2018-08-23 04:51:43pm, dynamic, 1_6_vs_2_6, false, LEFT, 2689, 1, 0, 0, 1
91,2018-08-23 04:51:47pm, dynamic, 1_6_vs_2_6, true, RIGHT, 4008, 0, 1, 0, 1
92,2018-08-23 04:51:49pm, dynamic, 1_6_vs_2_6, false, LEFT, 2543, 1, 0, 0, 1
93,2018-08-23 04:51:52pm, dynamic, 1_6_vs_2_6, true, RIGHT, 2417, 0, 1, 0, 1
94,2018-08-23 04:51:54pm, dynamic, 1_6_vs_2_6, false, LEFT, 2151, 1, 0, 0, 1
95,2018-08-23 04:52:00pm, dynamic, 1_6_vs_2_6, true, RIGHT, 5215, 0, 1, 0, 1
96,2018-08-23 04:52:02pm, dynamic, 1_6_vs_2_6, false, LEFT, 2303, 1, 0, 0, 1
97,2018-08-23 04:52:04pm, dynamic, 1_6_vs_2_6, true, RIGHT, 2664, 0, 1, 0, 1
98,2018-08-23 04:52:07pm, dynamic, 1_6_vs_2_6, false, LEFT, 3016, 1, 0, 0, 1
99,2018-08-23 04:52:10pm, dynamic, 1_6_vs_2_6, true, RIGHT, 2590, 0, 1, 0, 1
