[{"RT":4311,"time": "2018-08-15 06:14:53pm", "schedule_type": "STATIC", "schedule_name": "random_0", "is_biased_choice":true,"side_choice": "LEFT", "trial_number":0,"observed_reward":0,"unobserved_reward":1},{"RT":11559,"time": "2018-08-15 06:15:04pm", "schedule_type": "STATIC", "schedule_name": "random_0", "is_biased_choice":false,"side_choice": "RIGHT", "trial_number":1,"observed_reward":1,"unobserved_reward":0},{"RT":4296,"time": "2018-08-15 06:15:09pm", "schedule_type": "STATIC", "schedule_name": "random_0", "is_biased_choice":true,"side_choice": "LEFT", "trial_number":2,"observed_reward":0,"unobserved_reward":1},{"RT":2592,"time": "2018-08-15 06:15:11pm", "schedule_type": "STATIC", "schedule_name": "random_0", "is_biased_choice":false,"side_choice": "RIGHT", "trial_number":3,"observed_reward":0,"unobserved_reward":0},{"RT":2865,"time": "2018-08-15 06:15:14pm", "schedule_type": "STATIC", "schedule_name": "random_0", "is_biased_choice":false,"side_choice": "RIGHT", "trial_number":4,"observed_reward":0,"unobserved_reward":0},{"RT":2343,"time": "2018-08-15 06:15:16pm", "schedule_type": "STATIC", "schedule_name": "random_0", "is_biased_choice":true,"side_choice": "LEFT", "trial_number":5,"observed_reward":1,"unobserved_reward":0},{"RT":42708,"time": "2018-08-15 06:16:00pm", "schedule_type": "STATIC", "schedule_name": "random_0", "is_biased_choice":false,"side_choice": "RIGHT", "trial_number":6,"observed_reward":0,"unobserved_reward":0},{"RT":2506,"time": "2018-08-15 06:16:03pm", "schedule_type": "STATIC", "schedule_name": "random_0", "is_biased_choice":true,"side_choice": "LEFT", "trial_number":7,"observed_reward":0,"unobserved_reward":0},{"RT":2350,"time": "2018-08-15 06:16:04pm", "schedule_type": "STATIC", "schedule_name": "random_0", "is_biased_choice":false,"side_choice": "RIGHT", "trial_number":8,"observed_reward":0,"unobserved_reward":1},{"RT":2745,"time": "2018-08-15 06:16:07pm", "schedule_type": "STATIC", "schedule_name": "random_0", "is_biased_choice":true,"side_choice": "LEFT", "trial_number":9,"observed_reward":0,"unobserved_reward":0},{"RT":2216,"time": "2018-08-15 06:16:09pm", "schedule_type": "STATIC", "schedule_name": "random_0", "is_biased_choice":false,"side_choice": "RIGHT", "trial_number":10,"observed_reward":0,"unobserved_reward":0},{"RT":8192,"time": "2018-08-15 06:16:17pm", "schedule_type": "STATIC", "schedule_name": "random_0", "is_biased_choice":true,"side_choice": "LEFT", "trial_number":11,"observed_reward":1,"unobserved_reward":0},{"RT":6108,"time": "2018-08-15 06:16:23pm", "schedule_type": "STATIC", "schedule_name": "random_0", "is_biased_choice":false,"side_choice": "RIGHT", "trial_number":12,"observed_reward":0,"unobserved_reward":0},{"RT":2475,"time": "2018-08-15 06:16:26pm", "schedule_type": "STATIC", "schedule_name": "random_0", "is_biased_choice":true,"side_choice": "LEFT", "trial_number":13,"observed_reward":0,"unobserved_reward":1},{"RT":3329,"time": "2018-08-15 06:16:29pm", "schedule_type": "STATIC", "schedule_name": "random_0", "is_biased_choice":false,"side_choice": "RIGHT", "trial_number":14,"observed_reward":1,"unobserved_reward":0},{"RT":2976,"time": "2018-08-15 06:16:32pm", "schedule_type": "STATIC", "schedule_name": "random_0", "is_biased_choice":false,"side_choice": "RIGHT", "trial_number":15,"observed_reward":0,"unobserved_reward":0},{"RT":2407,"time": "2018-08-15 06:16:35pm", "schedule_type": "STATIC", "schedule_name": "random_0", "is_biased_choice":true,"side_choice": "LEFT", "trial_number":16,"observed_reward":0,"unobserved_reward":1},{"RT":2394,"time": "2018-08-15 06:16:37pm", "schedule_type": "STATIC", "schedule_name": "random_0", "is_biased_choice":true,"side_choice": "LEFT", "trial_number":17,"observed_reward":0,"unobserved_reward":0},{"RT":2130,"time": "2018-08-15 06:16:39pm", "schedule_type": "STATIC", "schedule_name": "random_0", "is_biased_choice":false,"side_choice": "RIGHT", "trial_number":18,"observed_reward":0,"unobserved_reward":0},{"RT":2552,"time": "2018-08-15 06:16:42pm", "schedule_type": "STATIC", "schedule_name": "random_0", "is_biased_choice":true,"side_choice": "LEFT", "trial_number":19,"observed_reward":1,"unobserved_reward":0},{"RT":3128,"time": "2018-08-15 06:16:45pm", "schedule_type": "STATIC", "schedule_name": "random_0", "is_biased_choice":false,"side_choice": "RIGHT", "trial_number":20,"observed_reward":1,"unobserved_reward":1},{"RT":3352,"time": "2018-08-15 06:16:48pm", "schedule_type": "STATIC", "schedule_name": "random_0", "is_biased_choice":true,"side_choice": "LEFT", "trial_number":21,"observed_reward":0,"unobserved_reward":0},{"RT":2439,"time": "2018-08-15 06:16:51pm", "schedule_type": "STATIC", "schedule_name": "random_0", "is_biased_choice":false,"side_choice": "RIGHT", "trial_number":22,"observed_reward":0,"unobserved_reward":0},{"RT":2840,"time": "2018-08-15 06:16:53pm", "schedule_type": "STATIC", "schedule_name": "random_0", "is_biased_choice":false,"side_choice": "RIGHT", "trial_number":23,"observed_reward":0,"unobserved_reward":0},{"RT":2112,"time": "2018-08-15 06:16:56pm", "schedule_type": "STATIC", "schedule_name": "random_0", "is_biased_choice":false,"side_choice": "RIGHT", "trial_number":24,"observed_reward":0,"unobserved_reward":0},{"RT":2178,"time": "2018-08-15 06:16:58pm", "schedule_type": "STATIC", "schedule_name": "random_0", "is_biased_choice":true,"side_choice": "LEFT", "trial_number":25,"observed_reward":0,"unobserved_reward":0},{"RT":2118,"time": "2018-08-15 06:17:00pm", "schedule_type": "STATIC", "schedule_name": "random_0", "is_biased_choice":true,"side_choice": "LEFT", "trial_number":26,"observed_reward":0,"unobserved_reward":0},{"RT":2344,"time": "2018-08-15 06:17:02pm", "schedule_type": "STATIC", "schedule_name": "random_0", "is_biased_choice":false,"side_choice": "RIGHT", "trial_number":27,"observed_reward":0,"unobserved_reward":1},{"RT":2312,"time": "2018-08-15 06:17:04pm", "schedule_type": "STATIC", "schedule_name": "random_0", "is_biased_choice":false,"side_choice": "RIGHT", "trial_number":28,"observed_reward":0,"unobserved_reward":0},{"RT":2119,"time": "2018-08-15 06:17:07pm", "schedule_type": "STATIC", "schedule_name": "random_0", "is_biased_choice":true,"side_choice": "LEFT", "trial_number":29,"observed_reward":0,"unobserved_reward":0},{"RT":2384,"time": "2018-08-15 06:17:09pm", "schedule_type": "STATIC", "schedule_name": "random_0", "is_biased_choice":false,"side_choice": "RIGHT", "trial_number":30,"observed_reward":0,"unobserved_reward":0},{"RT":17841,"time": "2018-08-15 06:17:27pm", "schedule_type": "STATIC", "schedule_name": "random_0", "is_biased_choice":false,"side_choice": "RIGHT", "trial_number":31,"observed_reward":0,"unobserved_reward":0},{"RT":2312,"time": "2018-08-15 06:17:29pm", "schedule_type": "STATIC", "schedule_name": "random_0", "is_biased_choice":true,"side_choice": "LEFT", "trial_number":32,"observed_reward":0,"unobserved_reward":0},{"RT":2496,"time": "2018-08-15 06:17:32pm", "schedule_type": "STATIC", "schedule_name": "random_0", "is_biased_choice":false,"side_choice": "RIGHT", "trial_number":33,"observed_reward":0,"unobserved_reward":0},{"RT":2128,"time": "2018-08-15 06:17:34pm", "schedule_type": "STATIC", "schedule_name": "random_0", "is_biased_choice":true,"side_choice": "LEFT", "trial_number":34,"observed_reward":0,"unobserved_reward":1},{"RT":2008,"time": "2018-08-15 06:17:36pm", "schedule_type": "STATIC", "schedule_name": "random_0", "is_biased_choice":false,"side_choice": "RIGHT", "trial_number":35,"observed_reward":1,"unobserved_reward":0},{"RT":1965,"time": "2018-08-15 06:17:38pm", "schedule_type": "STATIC", "schedule_name": "random_0", "is_biased_choice":false,"side_choice": "RIGHT", "trial_number":36,"observed_reward":1,"unobserved_reward":0},{"RT":2088,"time": "2018-08-15 06:17:40pm", "schedule_type": "STATIC", "schedule_name": "random_0", "is_biased_choice":true,"side_choice": "LEFT", "trial_number":37,"observed_reward":1,"unobserved_reward":1},{"RT":2352,"time": "2018-08-15 06:17:42pm", "schedule_type": "STATIC", "schedule_name": "random_0", "is_biased_choice":false,"side_choice": "RIGHT", "trial_number":38,"observed_reward":1,"unobserved_reward":0},{"RT":2270,"time": "2018-08-15 06:17:44pm", "schedule_type": "STATIC", "schedule_name": "random_0", "is_biased_choice":false,"side_choice": "RIGHT", "trial_number":39,"observed_reward":0,"unobserved_reward":0},{"RT":2360,"time": "2018-08-15 06:17:47pm", "schedule_type": "STATIC", "schedule_name": "random_0", "is_biased_choice":false,"side_choice": "RIGHT", "trial_number":40,"observed_reward":0,"unobserved_reward":0},{"RT":2194,"time": "2018-08-15 06:17:49pm", "schedule_type": "STATIC", "schedule_name": "random_0", "is_biased_choice":true,"side_choice": "LEFT", "trial_number":41,"observed_reward":0,"unobserved_reward":0},{"RT":2183,"time": "2018-08-15 06:17:51pm", "schedule_type": "STATIC", "schedule_name": "random_0", "is_biased_choice":false,"side_choice": "RIGHT", "trial_number":42,"observed_reward":0,"unobserved_reward":0},{"RT":2056,"time": "2018-08-15 06:17:53pm", "schedule_type": "STATIC", "schedule_name": "random_0", "is_biased_choice":true,"side_choice": "LEFT", "trial_number":43,"observed_reward":0,"unobserved_reward":0},{"RT":2184,"time": "2018-08-15 06:17:56pm", "schedule_type": "STATIC", "schedule_name": "random_0", "is_biased_choice":false,"side_choice": "RIGHT", "trial_number":44,"observed_reward":1,"unobserved_reward":1},{"RT":2264,"time": "2018-08-15 06:17:58pm", "schedule_type": "STATIC", "schedule_name": "random_0", "is_biased_choice":false,"side_choice": "RIGHT", "trial_number":45,"observed_reward":0,"unobserved_reward":1},{"RT":2401,"time": "2018-08-15 06:18:00pm", "schedule_type": "STATIC", "schedule_name": "random_0", "is_biased_choice":true,"side_choice": "LEFT", "trial_number":46,"observed_reward":0,"unobserved_reward":1},{"RT":24240,"time": "2018-08-15 06:18:24pm", "schedule_type": "STATIC", "schedule_name": "random_0", "is_biased_choice":false,"side_choice": "RIGHT", "trial_number":47,"observed_reward":0,"unobserved_reward":0},{"RT":2376,"time": "2018-08-15 06:18:27pm", "schedule_type": "STATIC", "schedule_name": "random_0", "is_biased_choice":true,"side_choice": "LEFT", "trial_number":48,"observed_reward":0,"unobserved_reward":0},{"RT":6215,"time": "2018-08-15 06:18:33pm", "schedule_type": "STATIC", "schedule_name": "random_0", "is_biased_choice":false,"side_choice": "RIGHT", "trial_number":49,"observed_reward":1,"unobserved_reward":0},{"RT":2265,"time": "2018-08-15 06:18:35pm", "schedule_type": "STATIC", "schedule_name": "random_0", "is_biased_choice":false,"side_choice": "RIGHT", "trial_number":50,"observed_reward":1,"unobserved_reward":1},{"RT":2129,"time": "2018-08-15 06:18:37pm", "schedule_type": "STATIC", "schedule_name": "random_0", "is_biased_choice":false,"side_choice": "RIGHT", "trial_number":51,"observed_reward":0,"unobserved_reward":0},{"RT":12114,"time": "2018-08-15 06:18:50pm", "schedule_type": "STATIC", "schedule_name": "random_0", "is_biased_choice":false,"side_choice": "RIGHT", "trial_number":52,"observed_reward":1,"unobserved_reward":0},{"RT":10783,"time": "2018-08-15 06:19:00pm", "schedule_type": "STATIC", "schedule_name": "random_0", "is_biased_choice":false,"side_choice": "RIGHT", "trial_number":53,"observed_reward":0,"unobserved_reward":0},{"RT":5464,"time": "2018-08-15 06:19:06pm", "schedule_type": "STATIC", "schedule_name": "random_0", "is_biased_choice":true,"side_choice": "LEFT", "trial_number":54,"observed_reward":1,"unobserved_reward":0},{"RT":2105,"time": "2018-08-15 06:19:08pm", "schedule_type": "STATIC", "schedule_name": "random_0", "is_biased_choice":true,"side_choice": "LEFT", "trial_number":55,"observed_reward":0,"unobserved_reward":0},{"RT":2110,"time": "2018-08-15 06:19:10pm", "schedule_type": "STATIC", "schedule_name": "random_0", "is_biased_choice":true,"side_choice": "LEFT", "trial_number":56,"observed_reward":0,"unobserved_reward":0},{"RT":2568,"time": "2018-08-15 06:19:13pm", "schedule_type": "STATIC", "schedule_name": "random_0", "is_biased_choice":false,"side_choice": "RIGHT", "trial_number":57,"observed_reward":0,"unobserved_reward":0},{"RT":2040,"time": "2018-08-15 06:19:14pm", "schedule_type": "STATIC", "schedule_name": "random_0", "is_biased_choice":true,"side_choice": "LEFT", "trial_number":58,"observed_reward":0,"unobserved_reward":1},{"RT":2220,"time": "2018-08-15 06:19:17pm", "schedule_type": "STATIC", "schedule_name": "random_0", "is_biased_choice":false,"side_choice": "RIGHT", "trial_number":59,"observed_reward":1,"unobserved_reward":1},{"RT":2229,"time": "2018-08-15 06:19:19pm", "schedule_type": "STATIC", "schedule_name": "random_0", "is_biased_choice":false,"side_choice": "RIGHT", "trial_number":60,"observed_reward":1,"unobserved_reward":1},{"RT":2096,"time": "2018-08-15 06:19:21pm", "schedule_type": "STATIC", "schedule_name": "random_0", "is_biased_choice":false,"side_choice": "RIGHT", "trial_number":61,"observed_reward":1,"unobserved_reward":0},{"RT":2040,"time": "2018-08-15 06:19:23pm", "schedule_type": "STATIC", "schedule_name": "random_0", "is_biased_choice":false,"side_choice": "RIGHT", "trial_number":62,"observed_reward":0,"unobserved_reward":1},{"RT":2040,"time": "2018-08-15 06:19:25pm", "schedule_type": "STATIC", "schedule_name": "random_0", "is_biased_choice":true,"side_choice": "LEFT", "trial_number":63,"observed_reward":1,"unobserved_reward":0},{"RT":2273,"time": "2018-08-15 06:19:27pm", "schedule_type": "STATIC", "schedule_name": "random_0", "is_biased_choice":true,"side_choice": "LEFT", "trial_number":64,"observed_reward":0,"unobserved_reward":1},{"RT":2462,"time": "2018-08-15 06:19:30pm", "schedule_type": "STATIC", "schedule_name": "random_0", "is_biased_choice":false,"side_choice": "RIGHT", "trial_number":65,"observed_reward":1,"unobserved_reward":0},{"RT":2024,"time": "2018-08-15 06:19:32pm", "schedule_type": "STATIC", "schedule_name": "random_0", "is_biased_choice":false,"side_choice": "RIGHT", "trial_number":66,"observed_reward":0,"unobserved_reward":0},{"RT":2105,"time": "2018-08-15 06:19:34pm", "schedule_type": "STATIC", "schedule_name": "random_0", "is_biased_choice":true,"side_choice": "LEFT", "trial_number":67,"observed_reward":1,"unobserved_reward":0},{"RT":2273,"time": "2018-08-15 06:19:36pm", "schedule_type": "STATIC", "schedule_name": "random_0", "is_biased_choice":false,"side_choice": "RIGHT", "trial_number":68,"observed_reward":0,"unobserved_reward":1},{"RT":1996,"time": "2018-08-15 06:19:38pm", "schedule_type": "STATIC", "schedule_name": "random_0", "is_biased_choice":true,"side_choice": "LEFT", "trial_number":69,"observed_reward":1,"unobserved_reward":0},{"RT":2296,"time": "2018-08-15 06:19:40pm", "schedule_type": "STATIC", "schedule_name": "random_0", "is_biased_choice":true,"side_choice": "LEFT", "trial_number":70,"observed_reward":0,"unobserved_reward":0},{"RT":2337,"time": "2018-08-15 06:19:43pm", "schedule_type": "STATIC", "schedule_name": "random_0", "is_biased_choice":false,"side_choice": "RIGHT", "trial_number":71,"observed_reward":0,"unobserved_reward":1},{"RT":2118,"time": "2018-08-15 06:19:45pm", "schedule_type": "STATIC", "schedule_name": "random_0", "is_biased_choice":true,"side_choice": "LEFT", "trial_number":72,"observed_reward":1,"unobserved_reward":0},{"RT":2193,"time": "2018-08-15 06:19:47pm", "schedule_type": "STATIC", "schedule_name": "random_0", "is_biased_choice":true,"side_choice": "LEFT", "trial_number":73,"observed_reward":0,"unobserved_reward":0},{"RT":1999,"time": "2018-08-15 06:19:49pm", "schedule_type": "STATIC", "schedule_name": "random_0", "is_biased_choice":false,"side_choice": "RIGHT", "trial_number":74,"observed_reward":0,"unobserved_reward":1},{"RT":2081,"time": "2018-08-15 06:19:51pm", "schedule_type": "STATIC", "schedule_name": "random_0", "is_biased_choice":true,"side_choice": "LEFT", "trial_number":75,"observed_reward":0,"unobserved_reward":0},{"RT":2120,"time": "2018-08-15 06:19:53pm", "schedule_type": "STATIC", "schedule_name": "random_0", "is_biased_choice":true,"side_choice": "LEFT", "trial_number":76,"observed_reward":0,"unobserved_reward":0},{"RT":2136,"time": "2018-08-15 06:19:55pm", "schedule_type": "STATIC", "schedule_name": "random_0", "is_biased_choice":false,"side_choice": "RIGHT", "trial_number":77,"observed_reward":0,"unobserved_reward":0},{"RT":2040,"time": "2018-08-15 06:19:58pm", "schedule_type": "STATIC", "schedule_name": "random_0", "is_biased_choice":true,"side_choice": "LEFT", "trial_number":78,"observed_reward":0,"unobserved_reward":0},{"RT":2129,"time": "2018-08-15 06:20:00pm", "schedule_type": "STATIC", "schedule_name": "random_0", "is_biased_choice":true,"side_choice": "LEFT", "trial_number":79,"observed_reward":0,"unobserved_reward":0},{"RT":2303,"time": "2018-08-15 06:20:02pm", "schedule_type": "STATIC", "schedule_name": "random_0", "is_biased_choice":false,"side_choice": "RIGHT", "trial_number":80,"observed_reward":0,"unobserved_reward":0},{"RT":2264,"time": "2018-08-15 06:20:04pm", "schedule_type": "STATIC", "schedule_name": "random_0", "is_biased_choice":false,"side_choice": "RIGHT", "trial_number":81,"observed_reward":0,"unobserved_reward":0},{"RT":2280,"time": "2018-08-15 06:20:07pm", "schedule_type": "STATIC", "schedule_name": "random_0", "is_biased_choice":true,"side_choice": "LEFT", "trial_number":82,"observed_reward":0,"unobserved_reward":0},{"RT":2233,"time": "2018-08-15 06:20:09pm", "schedule_type": "STATIC", "schedule_name": "random_0", "is_biased_choice":false,"side_choice": "RIGHT", "trial_number":83,"observed_reward":0,"unobserved_reward":1},{"RT":42340,"time": "2018-08-15 06:20:51pm", "schedule_type": "STATIC", "schedule_name": "random_0", "is_biased_choice":true,"side_choice": "LEFT", "trial_number":84,"observed_reward":0,"unobserved_reward":0},{"RT":2263,"time": "2018-08-15 06:20:53pm", "schedule_type": "STATIC", "schedule_name": "random_0", "is_biased_choice":false,"side_choice": "RIGHT", "trial_number":85,"observed_reward":1,"unobserved_reward":0},{"RT":2048,"time": "2018-08-15 06:20:55pm", "schedule_type": "STATIC", "schedule_name": "random_0", "is_biased_choice":false,"side_choice": "RIGHT", "trial_number":86,"observed_reward":1,"unobserved_reward":0},{"RT":2056,"time": "2018-08-15 06:20:57pm", "schedule_type": "STATIC", "schedule_name": "random_0", "is_biased_choice":false,"side_choice": "RIGHT", "trial_number":87,"observed_reward":0,"unobserved_reward":0},{"RT":2288,"time": "2018-08-15 06:21:00pm", "schedule_type": "STATIC", "schedule_name": "random_0", "is_biased_choice":true,"side_choice": "LEFT", "trial_number":88,"observed_reward":0,"unobserved_reward":0},{"RT":2161,"time": "2018-08-15 06:21:02pm", "schedule_type": "STATIC", "schedule_name": "random_0", "is_biased_choice":false,"side_choice": "RIGHT", "trial_number":89,"observed_reward":0,"unobserved_reward":1},{"RT":2384,"time": "2018-08-15 06:21:04pm", "schedule_type": "STATIC", "schedule_name": "random_0", "is_biased_choice":true,"side_choice": "LEFT", "trial_number":90,"observed_reward":0,"unobserved_reward":0},{"RT":2136,"time": "2018-08-15 06:21:06pm", "schedule_type": "STATIC", "schedule_name": "random_0", "is_biased_choice":false,"side_choice": "RIGHT", "trial_number":91,"observed_reward":0,"unobserved_reward":0},{"RT":2176,"time": "2018-08-15 06:21:09pm", "schedule_type": "STATIC", "schedule_name": "random_0", "is_biased_choice":true,"side_choice": "LEFT", "trial_number":92,"observed_reward":0,"unobserved_reward":0},{"RT":2047,"time": "2018-08-15 06:21:11pm", "schedule_type": "STATIC", "schedule_name": "random_0", "is_biased_choice":false,"side_choice": "RIGHT", "trial_number":93,"observed_reward":0,"unobserved_reward":0},{"RT":2064,"time": "2018-08-15 06:21:13pm", "schedule_type": "STATIC", "schedule_name": "random_0", "is_biased_choice":true,"side_choice": "LEFT", "trial_number":94,"observed_reward":1,"unobserved_reward":0},{"RT":2024,"time": "2018-08-15 06:21:15pm", "schedule_type": "STATIC", "schedule_name": "random_0", "is_biased_choice":true,"side_choice": "LEFT", "trial_number":95,"observed_reward":0,"unobserved_reward":0},{"RT":2088,"time": "2018-08-15 06:21:17pm", "schedule_type": "STATIC", "schedule_name": "random_0", "is_biased_choice":false,"side_choice": "RIGHT", "trial_number":96,"observed_reward":0,"unobserved_reward":0},{"RT":2129,"time": "2018-08-15 06:21:19pm", "schedule_type": "STATIC", "schedule_name": "random_0", "is_biased_choice":true,"side_choice": "LEFT", "trial_number":97,"observed_reward":0,"unobserved_reward":0},{"RT":2009,"time": "2018-08-15 06:21:21pm", "schedule_type": "STATIC", "schedule_name": "random_0", "is_biased_choice":false,"side_choice": "RIGHT", "trial_number":98,"observed_reward":0,"unobserved_reward":1},{"RT":2367,"time": "2018-08-15 06:21:23pm", "schedule_type": "STATIC", "schedule_name": "random_0", "is_biased_choice":true,"side_choice": "LEFT", "trial_number":99,"observed_reward":0,"unobserved_reward":0},