trial_number, time, schedule_type, schedule_name, is_biased_choice, side_choice, RT, observed_reward, unobserved_reward, biased_reward, unbiased_reward
0,2018-08-15 01:46:20pm, STATIC, random_0, false, RIGHT, 2085, 1, 0, 0, 1
1,2018-08-15 01:46:26pm, STATIC, random_0, false, RIGHT, 4319, 1, 0, 0, 1
2,2018-08-15 01:46:28pm, STATIC, random_0, true, LEFT, 2985, 0, 1, 0, 1
3,2018-08-15 01:46:31pm, STATIC, random_0, false, RIGHT, 3616, 0, 0, 0, 0
4,2018-08-15 01:46:34pm, STATIC, random_0, false, RIGHT, 3175, 0, 0, 0, 0
5,2018-08-15 01:46:37pm, STATIC, random_0, true, LEFT, 3080, 1, 0, 1, 0
6,2018-08-15 01:46:40pm, STATIC, random_0, false, RIGHT, 3240, 0, 0, 0, 0
7,2018-08-15 01:46:43pm, STATIC, random_0, true, LEFT, 2816, 0, 0, 0, 0
8,2018-08-15 01:46:46pm, STATIC, random_0, false, RIGHT, 2896, 0, 1, 1, 0
9,2018-08-15 01:46:49pm, STATIC, random_0, false, RIGHT, 2585, 0, 0, 0, 0
10,2018-08-15 01:46:51pm, STATIC, random_0, false, RIGHT, 2383, 0, 0, 0, 0
11,2018-08-15 01:46:54pm, STATIC, random_0, true, LEFT, 2976, 1, 0, 1, 0
12,2018-08-15 01:46:56pm, STATIC, random_0, false, RIGHT, 2440, 0, 0, 0, 0
13,2018-08-15 01:46:59pm, STATIC, random_0, true, LEFT, 2640, 0, 1, 0, 1
14,2018-08-15 01:47:02pm, STATIC, random_0, false, RIGHT, 2646, 1, 0, 0, 1
15,2018-08-15 01:47:05pm, STATIC, random_0, false, RIGHT, 3144, 0, 0, 0, 0
16,2018-08-15 01:47:08pm, STATIC, random_0, false, RIGHT, 2866, 1, 0, 0, 1
17,2018-08-15 01:47:10pm, STATIC, random_0, false, RIGHT, 2767, 0, 0, 0, 0
18,2018-08-15 01:47:16pm, STATIC, random_0, true, LEFT, 5319, 0, 0, 0, 0
19,2018-08-15 01:47:20pm, STATIC, random_0, false, RIGHT, 3983, 0, 1, 1, 0
20,2018-08-15 01:47:23pm, STATIC, random_0, false, RIGHT, 2848, 1, 1, 1, 1
21,2018-08-15 01:47:27pm, STATIC, random_0, true, LEFT, 2850, 0, 0, 0, 0
22,2018-08-15 01:47:29pm, STATIC, random_0, false, RIGHT, 3704, 0, 0, 0, 0
23,2018-08-15 01:47:33pm, STATIC, random_0, false, RIGHT, 3815, 0, 0, 0, 0
24,2018-08-15 01:47:36pm, STATIC, random_0, false, RIGHT, 2752, 0, 0, 0, 0
25,2018-08-15 01:47:39pm, STATIC, random_0, false, RIGHT, 2968, 0, 0, 0, 0
26,2018-08-15 01:47:42pm, STATIC, random_0, false, RIGHT, 3185, 0, 0, 0, 0
27,2018-08-15 01:47:44pm, STATIC, random_0, true, LEFT, 2183, 1, 0, 1, 0
28,2018-08-15 01:47:47pm, STATIC, random_0, true, LEFT, 2536, 0, 0, 0, 0
29,2018-08-15 01:47:49pm, STATIC, random_0, false, RIGHT, 2704, 0, 0, 0, 0
30,2018-08-15 01:47:52pm, STATIC, random_0, true, LEFT, 2376, 0, 0, 0, 0
31,2018-08-15 01:47:54pm, STATIC, random_0, false, RIGHT, 2529, 0, 0, 0, 0
32,2018-08-15 01:47:56pm, STATIC, random_0, false, RIGHT, 2367, 0, 0, 0, 0
33,2018-08-15 01:47:59pm, STATIC, random_0, true, LEFT, 2297, 0, 0, 0, 0
34,2018-08-15 01:48:01pm, STATIC, random_0, false, RIGHT, 2521, 1, 0, 0, 1
35,2018-08-15 01:48:04pm, STATIC, random_0, false, RIGHT, 2288, 1, 0, 0, 1
36,2018-08-15 01:48:06pm, STATIC, random_0, false, RIGHT, 2289, 1, 0, 0, 1
37,2018-08-15 01:48:08pm, STATIC, random_0, false, RIGHT, 2455, 1, 1, 1, 1
38,2018-08-15 01:48:11pm, STATIC, random_0, false, RIGHT, 2336, 1, 0, 0, 1
39,2018-08-15 01:48:13pm, STATIC, random_0, false, RIGHT, 2149, 0, 0, 0, 0
40,2018-08-15 01:48:15pm, STATIC, random_0, true, LEFT, 2508, 0, 0, 0, 0
41,2018-08-15 01:48:18pm, STATIC, random_0, true, LEFT, 2271, 0, 0, 0, 0
42,2018-08-15 01:48:20pm, STATIC, random_0, false, RIGHT, 2065, 0, 0, 0, 0
43,2018-08-15 01:48:22pm, STATIC, random_0, false, RIGHT, 2331, 0, 0, 0, 0
44,2018-08-15 01:48:25pm, STATIC, random_0, false, RIGHT, 2772, 1, 1, 1, 1
45,2018-08-15 01:48:29pm, STATIC, random_0, false, RIGHT, 2448, 0, 1, 1, 0
46,2018-08-15 01:48:31pm, STATIC, random_0, false, RIGHT, 3345, 1, 0, 0, 1
47,2018-08-15 01:48:33pm, STATIC, random_0, true, LEFT, 2718, 0, 0, 0, 0
48,2018-08-15 01:48:37pm, STATIC, random_0, false, RIGHT, 3217, 0, 0, 0, 0
49,2018-08-15 01:48:39pm, STATIC, random_0, true, LEFT, 2960, 0, 1, 0, 1
50,2018-08-15 01:48:42pm, STATIC, random_0, false, RIGHT, 2536, 1, 1, 1, 1
51,2018-08-15 01:48:45pm, STATIC, random_0, false, RIGHT, 2735, 0, 0, 0, 0
52,2018-08-15 01:48:47pm, STATIC, random_0, false, RIGHT, 2649, 1, 0, 0, 1
53,2018-08-15 01:48:50pm, STATIC, random_0, false, RIGHT, 2344, 0, 0, 0, 0
54,2018-08-15 01:48:53pm, STATIC, random_0, false, RIGHT, 2928, 0, 1, 1, 0
55,2018-08-15 01:48:56pm, STATIC, random_0, false, RIGHT, 2903, 0, 0, 0, 0
56,2018-08-15 01:48:58pm, STATIC, random_0, true, LEFT, 2624, 0, 0, 0, 0
57,2018-08-15 01:49:01pm, STATIC, random_0, false, RIGHT, 2513, 0, 0, 0, 0
58,2018-08-15 01:49:03pm, STATIC, random_0, false, RIGHT, 2564, 1, 0, 0, 1
59,2018-08-15 01:49:06pm, STATIC, random_0, false, RIGHT, 2853, 1, 1, 1, 1
60,2018-08-15 01:49:09pm, STATIC, random_0, false, RIGHT, 2880, 1, 1, 1, 1
61,2018-08-15 01:49:12pm, STATIC, random_0, false, RIGHT, 2992, 1, 0, 0, 1
62,2018-08-15 01:49:15pm, STATIC, random_0, false, RIGHT, 2832, 0, 1, 1, 0
63,2018-08-15 01:49:17pm, STATIC, random_0, true, LEFT, 2392, 1, 0, 1, 0
64,2018-08-15 01:49:20pm, STATIC, random_0, false, RIGHT, 2905, 1, 0, 0, 1
65,2018-08-15 01:49:23pm, STATIC, random_0, true, LEFT, 2455, 0, 1, 0, 1
66,2018-08-15 01:49:25pm, STATIC, random_0, false, RIGHT, 2447, 0, 0, 0, 0
67,2018-08-15 01:49:29pm, STATIC, random_0, false, RIGHT, 2329, 0, 1, 1, 0
68,2018-08-15 01:49:31pm, STATIC, random_0, true, LEFT, 3295, 1, 0, 1, 0
69,2018-08-15 01:49:34pm, STATIC, random_0, true, LEFT, 3013, 1, 0, 1, 0
70,2018-08-15 01:49:36pm, STATIC, random_0, true, LEFT, 2796, 0, 0, 0, 0
71,2018-08-15 01:49:39pm, STATIC, random_0, false, RIGHT, 2455, 0, 1, 1, 0
72,2018-08-15 01:49:41pm, STATIC, random_0, false, RIGHT, 2224, 0, 1, 1, 0
73,2018-08-15 01:49:44pm, STATIC, random_0, true, LEFT, 2528, 0, 0, 0, 0
74,2018-08-15 01:49:46pm, STATIC, random_0, true, LEFT, 2753, 1, 0, 1, 0
75,2018-08-15 01:49:49pm, STATIC, random_0, false, RIGHT, 2543, 0, 0, 0, 0
76,2018-08-15 01:49:51pm, STATIC, random_0, true, LEFT, 2224, 0, 0, 0, 0
77,2018-08-15 01:49:54pm, STATIC, random_0, false, RIGHT, 2433, 0, 0, 0, 0
78,2018-08-15 01:49:56pm, STATIC, random_0, false, RIGHT, 2720, 0, 0, 0, 0
79,2018-08-15 01:49:59pm, STATIC, random_0, true, LEFT, 2351, 0, 0, 0, 0
80,2018-08-15 01:50:01pm, STATIC, random_0, false, RIGHT, 2369, 0, 0, 0, 0
81,2018-08-15 01:50:04pm, STATIC, random_0, false, RIGHT, 2639, 0, 0, 0, 0
82,2018-08-15 01:50:06pm, STATIC, random_0, true, LEFT, 2489, 0, 0, 0, 0
83,2018-08-15 01:50:09pm, STATIC, random_0, false, RIGHT, 2519, 0, 1, 1, 0
84,2018-08-15 01:50:11pm, STATIC, random_0, false, RIGHT, 2329, 0, 0, 0, 0
85,2018-08-15 01:50:13pm, STATIC, random_0, false, RIGHT, 2353, 1, 0, 0, 1
86,2018-08-15 01:50:16pm, STATIC, random_0, false, RIGHT, 2391, 1, 0, 0, 1
87,2018-08-15 01:50:18pm, STATIC, random_0, false, RIGHT, 2375, 0, 0, 0, 0
88,2018-08-15 01:50:21pm, STATIC, random_0, true, LEFT, 2393, 0, 0, 0, 0
89,2018-08-15 01:50:23pm, STATIC, random_0, false, RIGHT, 2400, 0, 1, 1, 0
90,2018-08-15 01:50:25pm, STATIC, random_0, false, RIGHT, 2128, 0, 0, 0, 0
91,2018-08-15 01:50:28pm, STATIC, random_0, true, LEFT, 2472, 0, 0, 0, 0
92,2018-08-15 01:50:30pm, STATIC, random_0, false, RIGHT, 2688, 0, 0, 0, 0
93,2018-08-15 01:50:33pm, STATIC, random_0, false, RIGHT, 2423, 0, 0, 0, 0
94,2018-08-15 01:50:35pm, STATIC, random_0, false, RIGHT, 2313, 0, 1, 1, 0
95,2018-08-15 01:50:37pm, STATIC, random_0, false, RIGHT, 2471, 0, 0, 0, 0
96,2018-08-15 01:50:40pm, STATIC, random_0, true, LEFT, 2545, 0, 0, 0, 0
97,2018-08-15 01:50:43pm, STATIC, random_0, false, RIGHT, 2548, 0, 0, 0, 0
98,2018-08-15 01:50:45pm, STATIC, random_0, false, RIGHT, 2444, 0, 1, 1, 0
99,2018-08-15 01:50:47pm, STATIC, random_0, false, RIGHT, 2384, 0, 0, 0, 0
