[{"RT":1123,"time": "2018-08-15 05:28:16pm", "schedule_type": "STATIC", "schedule_name": "random_0", "is_biased_choice":false,"side_choice": "LEFT", "trial_number":0,"observed_reward":1,"unobserved_reward":0},{"RT":3872,"time": "2018-08-15 05:28:19pm", "schedule_type": "STATIC", "schedule_name": "random_0", "is_biased_choice":false,"side_choice": "LEFT", "trial_number":1,"observed_reward":1,"unobserved_reward":0},{"RT":3156,"time": "2018-08-15 05:28:23pm", "schedule_type": "STATIC", "schedule_name": "random_0", "is_biased_choice":false,"side_choice": "LEFT", "trial_number":2,"observed_reward":1,"unobserved_reward":0},{"RT":2699,"time": "2018-08-15 05:28:25pm", "schedule_type": "STATIC", "schedule_name": "random_0", "is_biased_choice":false,"side_choice": "LEFT", "trial_number":3,"observed_reward":0,"unobserved_reward":0},{"RT":3285,"time": "2018-08-15 05:28:29pm", "schedule_type": "STATIC", "schedule_name": "random_0", "is_biased_choice":true,"side_choice": "RIGHT", "trial_number":4,"observed_reward":0,"unobserved_reward":0},{"RT":3204,"time": "2018-08-15 05:28:32pm", "schedule_type": "STATIC", "schedule_name": "random_0", "is_biased_choice":false,"side_choice": "LEFT", "trial_number":5,"observed_reward":0,"unobserved_reward":1},{"RT":2443,"time": "2018-08-15 05:28:34pm", "schedule_type": "STATIC", "schedule_name": "random_0", "is_biased_choice":false,"side_choice": "LEFT", "trial_number":6,"observed_reward":0,"unobserved_reward":0},{"RT":3253,"time": "2018-08-15 05:28:38pm", "schedule_type": "STATIC", "schedule_name": "random_0", "is_biased_choice":false,"side_choice": "LEFT", "trial_number":7,"observed_reward":0,"unobserved_reward":0},{"RT":3680,"time": "2018-08-15 05:28:41pm", "schedule_type": "STATIC", "schedule_name": "random_0", "is_biased_choice":true,"side_choice": "RIGHT", "trial_number":8,"observed_reward":1,"unobserved_reward":0},{"RT":4040,"time": "2018-08-15 05:28:45pm", "schedule_type": "STATIC", "schedule_name": "random_0", "is_biased_choice":true,"side_choice": "RIGHT", "trial_number":9,"observed_reward":0,"unobserved_reward":0},{"RT":3396,"time": "2018-08-15 05:28:49pm", "schedule_type": "STATIC", "schedule_name": "random_0", "is_biased_choice":false,"side_choice": "LEFT", "trial_number":10,"observed_reward":0,"unobserved_reward":0},{"RT":3021,"time": "2018-08-15 05:28:52pm", "schedule_type": "STATIC", "schedule_name": "random_0", "is_biased_choice":false,"side_choice": "LEFT", "trial_number":11,"observed_reward":0,"unobserved_reward":1},{"RT":4271,"time": "2018-08-15 05:28:56pm", "schedule_type": "STATIC", "schedule_name": "random_0", "is_biased_choice":false,"side_choice": "LEFT", "trial_number":12,"observed_reward":0,"unobserved_reward":0},{"RT":3588,"time": "2018-08-15 05:29:00pm", "schedule_type": "STATIC", "schedule_name": "random_0", "is_biased_choice":true,"side_choice": "RIGHT", "trial_number":13,"observed_reward":0,"unobserved_reward":1},{"RT":6132,"time": "2018-08-15 05:29:06pm", "schedule_type": "STATIC", "schedule_name": "random_0", "is_biased_choice":true,"side_choice": "RIGHT", "trial_number":14,"observed_reward":0,"unobserved_reward":1},{"RT":3320,"time": "2018-08-15 05:29:09pm", "schedule_type": "STATIC", "schedule_name": "random_0", "is_biased_choice":false,"side_choice": "LEFT", "trial_number":15,"observed_reward":0,"unobserved_reward":0},{"RT":4284,"time": "2018-08-15 05:29:13pm", "schedule_type": "STATIC", "schedule_name": "random_0", "is_biased_choice":false,"side_choice": "LEFT", "trial_number":16,"observed_reward":1,"unobserved_reward":0},{"RT":5536,"time": "2018-08-15 05:29:19pm", "schedule_type": "STATIC", "schedule_name": "random_0", "is_biased_choice":true,"side_choice": "RIGHT", "trial_number":17,"observed_reward":0,"unobserved_reward":0},{"RT":3300,"time": "2018-08-15 05:29:22pm", "schedule_type": "STATIC", "schedule_name": "random_0", "is_biased_choice":false,"side_choice": "LEFT", "trial_number":18,"observed_reward":0,"unobserved_reward":0},{"RT":3764,"time": "2018-08-15 05:29:26pm", "schedule_type": "STATIC", "schedule_name": "random_0", "is_biased_choice":false,"side_choice": "LEFT", "trial_number":19,"observed_reward":0,"unobserved_reward":1},{"RT":7196,"time": "2018-08-15 05:29:33pm", "schedule_type": "STATIC", "schedule_name": "random_0", "is_biased_choice":false,"side_choice": "LEFT", "trial_number":20,"observed_reward":1,"unobserved_reward":1},{"RT":3175,"time": "2018-08-15 05:29:36pm", "schedule_type": "STATIC", "schedule_name": "random_0", "is_biased_choice":false,"side_choice": "LEFT", "trial_number":21,"observed_reward":0,"unobserved_reward":0},{"RT":3205,"time": "2018-08-15 05:29:39pm", "schedule_type": "STATIC", "schedule_name": "random_0", "is_biased_choice":true,"side_choice": "RIGHT", "trial_number":22,"observed_reward":0,"unobserved_reward":0},{"RT":4748,"time": "2018-08-15 05:29:44pm", "schedule_type": "STATIC", "schedule_name": "random_0", "is_biased_choice":false,"side_choice": "LEFT", "trial_number":23,"observed_reward":0,"unobserved_reward":0},{"RT":4736,"time": "2018-08-15 05:29:49pm", "schedule_type": "STATIC", "schedule_name": "random_0", "is_biased_choice":true,"side_choice": "RIGHT", "trial_number":24,"observed_reward":0,"unobserved_reward":0},{"RT":4627,"time": "2018-08-15 05:29:54pm", "schedule_type": "STATIC", "schedule_name": "random_0", "is_biased_choice":false,"side_choice": "LEFT", "trial_number":25,"observed_reward":0,"unobserved_reward":0},{"RT":3073,"time": "2018-08-15 05:29:57pm", "schedule_type": "STATIC", "schedule_name": "random_0", "is_biased_choice":false,"side_choice": "LEFT", "trial_number":26,"observed_reward":0,"unobserved_reward":0},{"RT":3435,"time": "2018-08-15 05:30:00pm", "schedule_type": "STATIC", "schedule_name": "random_0", "is_biased_choice":false,"side_choice": "LEFT", "trial_number":27,"observed_reward":0,"unobserved_reward":1},{"RT":3004,"time": "2018-08-15 05:30:03pm", "schedule_type": "STATIC", "schedule_name": "random_0", "is_biased_choice":true,"side_choice": "RIGHT", "trial_number":28,"observed_reward":0,"unobserved_reward":0},{"RT":2669,"time": "2018-08-15 05:30:06pm", "schedule_type": "STATIC", "schedule_name": "random_0", "is_biased_choice":true,"side_choice": "RIGHT", "trial_number":29,"observed_reward":0,"unobserved_reward":0},{"RT":2692,"time": "2018-08-15 05:30:08pm", "schedule_type": "STATIC", "schedule_name": "random_0", "is_biased_choice":false,"side_choice": "LEFT", "trial_number":30,"observed_reward":0,"unobserved_reward":0},{"RT":2820,"time": "2018-08-15 05:30:11pm", "schedule_type": "STATIC", "schedule_name": "random_0", "is_biased_choice":false,"side_choice": "LEFT", "trial_number":31,"observed_reward":0,"unobserved_reward":0},{"RT":2452,"time": "2018-08-15 05:30:14pm", "schedule_type": "STATIC", "schedule_name": "random_0", "is_biased_choice":true,"side_choice": "RIGHT", "trial_number":32,"observed_reward":0,"unobserved_reward":0},{"RT":2299,"time": "2018-08-15 05:30:16pm", "schedule_type": "STATIC", "schedule_name": "random_0", "is_biased_choice":true,"side_choice": "RIGHT", "trial_number":33,"observed_reward":0,"unobserved_reward":0},{"RT":2273,"time": "2018-08-15 05:30:18pm", "schedule_type": "STATIC", "schedule_name": "random_0", "is_biased_choice":false,"side_choice": "LEFT", "trial_number":34,"observed_reward":1,"unobserved_reward":0},{"RT":2292,"time": "2018-08-15 05:30:21pm", "schedule_type": "STATIC", "schedule_name": "random_0", "is_biased_choice":false,"side_choice": "LEFT", "trial_number":35,"observed_reward":1,"unobserved_reward":0},{"RT":2548,"time": "2018-08-15 05:30:23pm", "schedule_type": "STATIC", "schedule_name": "random_0", "is_biased_choice":false,"side_choice": "LEFT", "trial_number":36,"observed_reward":1,"unobserved_reward":0},{"RT":2612,"time": "2018-08-15 05:30:26pm", "schedule_type": "STATIC", "schedule_name": "random_0", "is_biased_choice":true,"side_choice": "RIGHT", "trial_number":37,"observed_reward":1,"unobserved_reward":1},{"RT":2964,"time": "2018-08-15 05:30:29pm", "schedule_type": "STATIC", "schedule_name": "random_0", "is_biased_choice":false,"side_choice": "LEFT", "trial_number":38,"observed_reward":1,"unobserved_reward":0},{"RT":2500,"time": "2018-08-15 05:30:31pm", "schedule_type": "STATIC", "schedule_name": "random_0", "is_biased_choice":true,"side_choice": "RIGHT", "trial_number":39,"observed_reward":0,"unobserved_reward":0},{"RT":3356,"time": "2018-08-15 05:30:35pm", "schedule_type": "STATIC", "schedule_name": "random_0", "is_biased_choice":false,"side_choice": "LEFT", "trial_number":40,"observed_reward":0,"unobserved_reward":0},{"RT":2645,"time": "2018-08-15 05:30:37pm", "schedule_type": "STATIC", "schedule_name": "random_0", "is_biased_choice":false,"side_choice": "LEFT", "trial_number":41,"observed_reward":0,"unobserved_reward":0},{"RT":2707,"time": "2018-08-15 05:30:40pm", "schedule_type": "STATIC", "schedule_name": "random_0", "is_biased_choice":true,"side_choice": "RIGHT", "trial_number":42,"observed_reward":0,"unobserved_reward":0},{"RT":2556,"time": "2018-08-15 05:30:42pm", "schedule_type": "STATIC", "schedule_name": "random_0", "is_biased_choice":true,"side_choice": "RIGHT", "trial_number":43,"observed_reward":0,"unobserved_reward":0},{"RT":2803,"time": "2018-08-15 05:30:45pm", "schedule_type": "STATIC", "schedule_name": "random_0", "is_biased_choice":false,"side_choice": "LEFT", "trial_number":44,"observed_reward":1,"unobserved_reward":1},{"RT":2456,"time": "2018-08-15 05:30:48pm", "schedule_type": "STATIC", "schedule_name": "random_0", "is_biased_choice":false,"side_choice": "LEFT", "trial_number":45,"observed_reward":0,"unobserved_reward":1},{"RT":3169,"time": "2018-08-15 05:30:51pm", "schedule_type": "STATIC", "schedule_name": "random_0", "is_biased_choice":false,"side_choice": "LEFT", "trial_number":46,"observed_reward":1,"unobserved_reward":0},{"RT":3508,"time": "2018-08-15 05:30:54pm", "schedule_type": "STATIC", "schedule_name": "random_0", "is_biased_choice":false,"side_choice": "LEFT", "trial_number":47,"observed_reward":0,"unobserved_reward":0},{"RT":2555,"time": "2018-08-15 05:30:57pm", "schedule_type": "STATIC", "schedule_name": "random_0", "is_biased_choice":false,"side_choice": "LEFT", "trial_number":48,"observed_reward":0,"unobserved_reward":0},{"RT":2321,"time": "2018-08-15 05:30:59pm", "schedule_type": "STATIC", "schedule_name": "random_0", "is_biased_choice":true,"side_choice": "RIGHT", "trial_number":49,"observed_reward":0,"unobserved_reward":1},{"RT":2251,"time": "2018-08-15 05:31:01pm", "schedule_type": "STATIC", "schedule_name": "random_0", "is_biased_choice":false,"side_choice": "LEFT", "trial_number":50,"observed_reward":1,"unobserved_reward":1},{"RT":22717,"time": "2018-08-15 05:31:24pm", "schedule_type": "STATIC", "schedule_name": "random_0", "is_biased_choice":false,"side_choice": "LEFT", "trial_number":51,"observed_reward":0,"unobserved_reward":0},{"RT":2207,"time": "2018-08-15 05:31:26pm", "schedule_type": "STATIC", "schedule_name": "random_0", "is_biased_choice":true,"side_choice": "RIGHT", "trial_number":52,"observed_reward":0,"unobserved_reward":1},{"RT":2517,"time": "2018-08-15 05:31:29pm", "schedule_type": "STATIC", "schedule_name": "random_0", "is_biased_choice":true,"side_choice": "RIGHT", "trial_number":53,"observed_reward":0,"unobserved_reward":0},{"RT":2484,"time": "2018-08-15 05:31:31pm", "schedule_type": "STATIC", "schedule_name": "random_0", "is_biased_choice":false,"side_choice": "LEFT", "trial_number":54,"observed_reward":0,"unobserved_reward":1},{"RT":5043,"time": "2018-08-15 05:31:36pm", "schedule_type": "STATIC", "schedule_name": "random_0", "is_biased_choice":true,"side_choice": "RIGHT", "trial_number":55,"observed_reward":0,"unobserved_reward":0},{"RT":2760,"time": "2018-08-15 05:31:39pm", "schedule_type": "STATIC", "schedule_name": "random_0", "is_biased_choice":false,"side_choice": "LEFT", "trial_number":56,"observed_reward":0,"unobserved_reward":0},{"RT":3252,"time": "2018-08-15 05:31:43pm", "schedule_type": "STATIC", "schedule_name": "random_0", "is_biased_choice":false,"side_choice": "LEFT", "trial_number":57,"observed_reward":0,"unobserved_reward":0},{"RT":2521,"time": "2018-08-15 05:31:45pm", "schedule_type": "STATIC", "schedule_name": "random_0", "is_biased_choice":true,"side_choice": "RIGHT", "trial_number":58,"observed_reward":0,"unobserved_reward":1},{"RT":2344,"time": "2018-08-15 05:31:47pm", "schedule_type": "STATIC", "schedule_name": "random_0", "is_biased_choice":false,"side_choice": "LEFT", "trial_number":59,"observed_reward":1,"unobserved_reward":1},{"RT":2352,"time": "2018-08-15 05:31:50pm", "schedule_type": "STATIC", "schedule_name": "random_0", "is_biased_choice":false,"side_choice": "LEFT", "trial_number":60,"observed_reward":1,"unobserved_reward":1},{"RT":3064,"time": "2018-08-15 05:31:53pm", "schedule_type": "STATIC", "schedule_name": "random_0", "is_biased_choice":false,"side_choice": "LEFT", "trial_number":61,"observed_reward":1,"unobserved_reward":0},{"RT":2704,"time": "2018-08-15 05:31:55pm", "schedule_type": "STATIC", "schedule_name": "random_0", "is_biased_choice":false,"side_choice": "LEFT", "trial_number":62,"observed_reward":0,"unobserved_reward":1},{"RT":2483,"time": "2018-08-15 05:31:58pm", "schedule_type": "STATIC", "schedule_name": "random_0", "is_biased_choice":true,"side_choice": "RIGHT", "trial_number":63,"observed_reward":1,"unobserved_reward":0},{"RT":3977,"time": "2018-08-15 05:32:02pm", "schedule_type": "STATIC", "schedule_name": "random_0", "is_biased_choice":true,"side_choice": "RIGHT", "trial_number":64,"observed_reward":0,"unobserved_reward":1},{"RT":4485,"time": "2018-08-15 05:32:07pm", "schedule_type": "STATIC", "schedule_name": "random_0", "is_biased_choice":true,"side_choice": "RIGHT", "trial_number":65,"observed_reward":0,"unobserved_reward":1},{"RT":3428,"time": "2018-08-15 05:32:10pm", "schedule_type": "STATIC", "schedule_name": "random_0", "is_biased_choice":false,"side_choice": "LEFT", "trial_number":66,"observed_reward":0,"unobserved_reward":0},{"RT":2722,"time": "2018-08-15 05:32:13pm", "schedule_type": "STATIC", "schedule_name": "random_0", "is_biased_choice":false,"side_choice": "LEFT", "trial_number":67,"observed_reward":0,"unobserved_reward":1},{"RT":2725,"time": "2018-08-15 05:32:15pm", "schedule_type": "STATIC", "schedule_name": "random_0", "is_biased_choice":true,"side_choice": "RIGHT", "trial_number":68,"observed_reward":1,"unobserved_reward":0},{"RT":2604,"time": "2018-08-15 05:32:18pm", "schedule_type": "STATIC", "schedule_name": "random_0", "is_biased_choice":true,"side_choice": "RIGHT", "trial_number":69,"observed_reward":1,"unobserved_reward":0},{"RT":2540,"time": "2018-08-15 05:32:20pm", "schedule_type": "STATIC", "schedule_name": "random_0", "is_biased_choice":false,"side_choice": "LEFT", "trial_number":70,"observed_reward":0,"unobserved_reward":0},{"RT":2348,"time": "2018-08-15 05:32:23pm", "schedule_type": "STATIC", "schedule_name": "random_0", "is_biased_choice":true,"side_choice": "RIGHT", "trial_number":71,"observed_reward":1,"unobserved_reward":0},{"RT":2223,"time": "2018-08-15 05:32:25pm", "schedule_type": "STATIC", "schedule_name": "random_0", "is_biased_choice":true,"side_choice": "RIGHT", "trial_number":72,"observed_reward":1,"unobserved_reward":0},{"RT":2213,"time": "2018-08-15 05:32:27pm", "schedule_type": "STATIC", "schedule_name": "random_0", "is_biased_choice":true,"side_choice": "RIGHT", "trial_number":73,"observed_reward":0,"unobserved_reward":0},{"RT":2757,"time": "2018-08-15 05:32:30pm", "schedule_type": "STATIC", "schedule_name": "random_0", "is_biased_choice":false,"side_choice": "LEFT", "trial_number":74,"observed_reward":0,"unobserved_reward":1},{"RT":6251,"time": "2018-08-15 05:32:36pm", "schedule_type": "STATIC", "schedule_name": "random_0", "is_biased_choice":true,"side_choice": "RIGHT", "trial_number":75,"observed_reward":0,"unobserved_reward":0},{"RT":3147,"time": "2018-08-15 05:32:39pm", "schedule_type": "STATIC", "schedule_name": "random_0", "is_biased_choice":false,"side_choice": "LEFT", "trial_number":76,"observed_reward":0,"unobserved_reward":0},{"RT":2421,"time": "2018-08-15 05:32:42pm", "schedule_type": "STATIC", "schedule_name": "random_0", "is_biased_choice":false,"side_choice": "LEFT", "trial_number":77,"observed_reward":0,"unobserved_reward":0},{"RT":3464,"time": "2018-08-15 05:32:45pm", "schedule_type": "STATIC", "schedule_name": "random_0", "is_biased_choice":true,"side_choice": "RIGHT", "trial_number":78,"observed_reward":0,"unobserved_reward":0},{"RT":2387,"time": "2018-08-15 05:32:48pm", "schedule_type": "STATIC", "schedule_name": "random_0", "is_biased_choice":false,"side_choice": "LEFT", "trial_number":79,"observed_reward":0,"unobserved_reward":0},{"RT":2230,"time": "2018-08-15 05:32:50pm", "schedule_type": "STATIC", "schedule_name": "random_0", "is_biased_choice":true,"side_choice": "RIGHT", "trial_number":80,"observed_reward":0,"unobserved_reward":0},{"RT":2708,"time": "2018-08-15 05:32:53pm", "schedule_type": "STATIC", "schedule_name": "random_0", "is_biased_choice":false,"side_choice": "LEFT", "trial_number":81,"observed_reward":0,"unobserved_reward":0},{"RT":2399,"time": "2018-08-15 05:32:55pm", "schedule_type": "STATIC", "schedule_name": "random_0", "is_biased_choice":false,"side_choice": "LEFT", "trial_number":82,"observed_reward":0,"unobserved_reward":0},{"RT":2379,"time": "2018-08-15 05:32:57pm", "schedule_type": "STATIC", "schedule_name": "random_0", "is_biased_choice":true,"side_choice": "RIGHT", "trial_number":83,"observed_reward":1,"unobserved_reward":0},{"RT":2456,"time": "2018-08-15 05:33:00pm", "schedule_type": "STATIC", "schedule_name": "random_0", "is_biased_choice":true,"side_choice": "RIGHT", "trial_number":84,"observed_reward":0,"unobserved_reward":0},{"RT":2485,"time": "2018-08-15 05:33:02pm", "schedule_type": "STATIC", "schedule_name": "random_0", "is_biased_choice":false,"side_choice": "LEFT", "trial_number":85,"observed_reward":1,"unobserved_reward":0},{"RT":2535,"time": "2018-08-15 05:33:05pm", "schedule_type": "STATIC", "schedule_name": "random_0", "is_biased_choice":false,"side_choice": "LEFT", "trial_number":86,"observed_reward":1,"unobserved_reward":0},{"RT":3285,"time": "2018-08-15 05:33:08pm", "schedule_type": "STATIC", "schedule_name": "random_0", "is_biased_choice":false,"side_choice": "LEFT", "trial_number":87,"observed_reward":0,"unobserved_reward":0},{"RT":3160,"time": "2018-08-15 05:33:11pm", "schedule_type": "STATIC", "schedule_name": "random_0", "is_biased_choice":true,"side_choice": "RIGHT", "trial_number":88,"observed_reward":0,"unobserved_reward":0},{"RT":2548,"time": "2018-08-15 05:33:14pm", "schedule_type": "STATIC", "schedule_name": "random_0", "is_biased_choice":false,"side_choice": "LEFT", "trial_number":89,"observed_reward":0,"unobserved_reward":1},{"RT":2576,"time": "2018-08-15 05:33:16pm", "schedule_type": "STATIC", "schedule_name": "random_0", "is_biased_choice":true,"side_choice": "RIGHT", "trial_number":90,"observed_reward":0,"unobserved_reward":0},{"RT":2412,"time": "2018-08-15 05:33:19pm", "schedule_type": "STATIC", "schedule_name": "random_0", "is_biased_choice":false,"side_choice": "LEFT", "trial_number":91,"observed_reward":0,"unobserved_reward":0},{"RT":2096,"time": "2018-08-15 05:33:21pm", "schedule_type": "STATIC", "schedule_name": "random_0", "is_biased_choice":false,"side_choice": "LEFT", "trial_number":92,"observed_reward":0,"unobserved_reward":0},{"RT":2188,"time": "2018-08-15 05:33:23pm", "schedule_type": "STATIC", "schedule_name": "random_0", "is_biased_choice":false,"side_choice": "LEFT", "trial_number":93,"observed_reward":0,"unobserved_reward":0},{"RT":2172,"time": "2018-08-15 05:33:25pm", "schedule_type": "STATIC", "schedule_name": "random_0", "is_biased_choice":false,"side_choice": "LEFT", "trial_number":94,"observed_reward":0,"unobserved_reward":1},{"RT":2351,"time": "2018-08-15 05:33:28pm", "schedule_type": "STATIC", "schedule_name": "random_0", "is_biased_choice":true,"side_choice": "RIGHT", "trial_number":95,"observed_reward":0,"unobserved_reward":0},{"RT":3125,"time": "2018-08-15 05:33:31pm", "schedule_type": "STATIC", "schedule_name": "random_0", "is_biased_choice":false,"side_choice": "LEFT", "trial_number":96,"observed_reward":0,"unobserved_reward":0},{"RT":2352,"time": "2018-08-15 05:33:33pm", "schedule_type": "STATIC", "schedule_name": "random_0", "is_biased_choice":true,"side_choice": "RIGHT", "trial_number":97,"observed_reward":0,"unobserved_reward":0},{"RT":2319,"time": "2018-08-15 05:33:35pm", "schedule_type": "STATIC", "schedule_name": "random_0", "is_biased_choice":true,"side_choice": "RIGHT", "trial_number":98,"observed_reward":1,"unobserved_reward":0},