[{"RT":6596,"time": "2018-08-15 05:35:40pm", "schedule_type": "STATIC", "schedule_name": "random_0", "is_biased_choice":false,"side_choice": "LEFT", "trial_number":0,"observed_reward":1,"unobserved_reward":0},{"RT":3591,"time": "2018-08-15 05:35:44pm", "schedule_type": "STATIC", "schedule_name": "random_0", "is_biased_choice":true,"side_choice": "RIGHT", "trial_number":1,"observed_reward":0,"unobserved_reward":1},{"RT":6398,"time": "2018-08-15 05:35:50pm", "schedule_type": "STATIC", "schedule_name": "random_0", "is_biased_choice":false,"side_choice": "LEFT", "trial_number":2,"observed_reward":1,"unobserved_reward":0},{"RT":4065,"time": "2018-08-15 05:35:54pm", "schedule_type": "STATIC", "schedule_name": "random_0", "is_biased_choice":true,"side_choice": "RIGHT", "trial_number":3,"observed_reward":0,"unobserved_reward":0},{"RT":3184,"time": "2018-08-15 05:35:57pm", "schedule_type": "STATIC", "schedule_name": "random_0", "is_biased_choice":false,"side_choice": "LEFT", "trial_number":4,"observed_reward":0,"unobserved_reward":0},{"RT":2952,"time": "2018-08-15 05:36:00pm", "schedule_type": "STATIC", "schedule_name": "random_0", "is_biased_choice":false,"side_choice": "LEFT", "trial_number":5,"observed_reward":0,"unobserved_reward":1},{"RT":2928,"time": "2018-08-15 05:36:03pm", "schedule_type": "STATIC", "schedule_name": "random_0", "is_biased_choice":true,"side_choice": "RIGHT", "trial_number":6,"observed_reward":0,"unobserved_reward":0},{"RT":2895,"time": "2018-08-15 05:36:06pm", "schedule_type": "STATIC", "schedule_name": "random_0", "is_biased_choice":true,"side_choice": "RIGHT", "trial_number":7,"observed_reward":0,"unobserved_reward":0},{"RT":3641,"time": "2018-08-15 05:36:10pm", "schedule_type": "STATIC", "schedule_name": "random_0", "is_biased_choice":true,"side_choice": "RIGHT", "trial_number":8,"observed_reward":1,"unobserved_reward":0},{"RT":4121,"time": "2018-08-15 05:36:14pm", "schedule_type": "STATIC", "schedule_name": "random_0", "is_biased_choice":true,"side_choice": "RIGHT", "trial_number":9,"observed_reward":0,"unobserved_reward":0},{"RT":2798,"time": "2018-08-15 05:36:17pm", "schedule_type": "STATIC", "schedule_name": "random_0", "is_biased_choice":false,"side_choice": "LEFT", "trial_number":10,"observed_reward":0,"unobserved_reward":0},{"RT":2392,"time": "2018-08-15 05:36:19pm", "schedule_type": "STATIC", "schedule_name": "random_0", "is_biased_choice":false,"side_choice": "LEFT", "trial_number":11,"observed_reward":0,"unobserved_reward":1},{"RT":2434,"time": "2018-08-15 05:36:21pm", "schedule_type": "STATIC", "schedule_name": "random_0", "is_biased_choice":true,"side_choice": "RIGHT", "trial_number":12,"observed_reward":0,"unobserved_reward":0},{"RT":2424,"time": "2018-08-15 05:36:24pm", "schedule_type": "STATIC", "schedule_name": "random_0", "is_biased_choice":true,"side_choice": "RIGHT", "trial_number":13,"observed_reward":0,"unobserved_reward":1},{"RT":2736,"time": "2018-08-15 05:36:27pm", "schedule_type": "STATIC", "schedule_name": "random_0", "is_biased_choice":false,"side_choice": "LEFT", "trial_number":14,"observed_reward":1,"unobserved_reward":0},{"RT":2552,"time": "2018-08-15 05:36:29pm", "schedule_type": "STATIC", "schedule_name": "random_0", "is_biased_choice":false,"side_choice": "LEFT", "trial_number":15,"observed_reward":0,"unobserved_reward":0},{"RT":2504,"time": "2018-08-15 05:36:32pm", "schedule_type": "STATIC", "schedule_name": "random_0", "is_biased_choice":true,"side_choice": "RIGHT", "trial_number":16,"observed_reward":0,"unobserved_reward":1},{"RT":15830,"time": "2018-08-15 05:36:48pm", "schedule_type": "STATIC", "schedule_name": "random_0", "is_biased_choice":false,"side_choice": "LEFT", "trial_number":17,"observed_reward":0,"unobserved_reward":0},{"RT":2560,"time": "2018-08-15 05:36:50pm", "schedule_type": "STATIC", "schedule_name": "random_0", "is_biased_choice":true,"side_choice": "RIGHT", "trial_number":18,"observed_reward":0,"unobserved_reward":0},{"RT":2698,"time": "2018-08-15 05:36:53pm", "schedule_type": "STATIC", "schedule_name": "random_0", "is_biased_choice":false,"side_choice": "LEFT", "trial_number":19,"observed_reward":0,"unobserved_reward":1},{"RT":3374,"time": "2018-08-15 05:36:56pm", "schedule_type": "STATIC", "schedule_name": "random_0", "is_biased_choice":true,"side_choice": "RIGHT", "trial_number":20,"observed_reward":1,"unobserved_reward":1},{"RT":2896,"time": "2018-08-15 05:36:59pm", "schedule_type": "STATIC", "schedule_name": "random_0", "is_biased_choice":false,"side_choice": "LEFT", "trial_number":21,"observed_reward":0,"unobserved_reward":0},{"RT":2339,"time": "2018-08-15 05:37:01pm", "schedule_type": "STATIC", "schedule_name": "random_0", "is_biased_choice":false,"side_choice": "LEFT", "trial_number":22,"observed_reward":0,"unobserved_reward":0},{"RT":2559,"time": "2018-08-15 05:37:04pm", "schedule_type": "STATIC", "schedule_name": "random_0", "is_biased_choice":false,"side_choice": "LEFT", "trial_number":23,"observed_reward":0,"unobserved_reward":0},{"RT":2336,"time": "2018-08-15 05:37:06pm", "schedule_type": "STATIC", "schedule_name": "random_0", "is_biased_choice":true,"side_choice": "RIGHT", "trial_number":24,"observed_reward":0,"unobserved_reward":0},{"RT":2327,"time": "2018-08-15 05:37:09pm", "schedule_type": "STATIC", "schedule_name": "random_0", "is_biased_choice":false,"side_choice": "LEFT", "trial_number":25,"observed_reward":0,"unobserved_reward":0},{"RT":5776,"time": "2018-08-15 05:37:15pm", "schedule_type": "STATIC", "schedule_name": "random_0", "is_biased_choice":false,"side_choice": "LEFT", "trial_number":26,"observed_reward":0,"unobserved_reward":0},{"RT":2961,"time": "2018-08-15 05:37:17pm", "schedule_type": "STATIC", "schedule_name": "random_0", "is_biased_choice":false,"side_choice": "LEFT", "trial_number":27,"observed_reward":0,"unobserved_reward":1},{"RT":2800,"time": "2018-08-15 05:37:20pm", "schedule_type": "STATIC", "schedule_name": "random_0", "is_biased_choice":true,"side_choice": "RIGHT", "trial_number":28,"observed_reward":0,"unobserved_reward":0},{"RT":2647,"time": "2018-08-15 05:37:23pm", "schedule_type": "STATIC", "schedule_name": "random_0", "is_biased_choice":false,"side_choice": "LEFT", "trial_number":29,"observed_reward":0,"unobserved_reward":0},{"RT":2369,"time": "2018-08-15 05:37:25pm", "schedule_type": "STATIC", "schedule_name": "random_0", "is_biased_choice":false,"side_choice": "LEFT", "trial_number":30,"observed_reward":0,"unobserved_reward":0},{"RT":2256,"time": "2018-08-15 05:37:27pm", "schedule_type": "STATIC", "schedule_name": "random_0", "is_biased_choice":true,"side_choice": "RIGHT", "trial_number":31,"observed_reward":0,"unobserved_reward":0},{"RT":3016,"time": "2018-08-15 05:37:30pm", "schedule_type": "STATIC", "schedule_name": "random_0", "is_biased_choice":true,"side_choice": "RIGHT", "trial_number":32,"observed_reward":0,"unobserved_reward":0},{"RT":2214,"time": "2018-08-15 05:37:33pm", "schedule_type": "STATIC", "schedule_name": "random_0", "is_biased_choice":false,"side_choice": "LEFT", "trial_number":33,"observed_reward":0,"unobserved_reward":0},{"RT":2577,"time": "2018-08-15 05:37:35pm", "schedule_type": "STATIC", "schedule_name": "random_0", "is_biased_choice":true,"side_choice": "RIGHT", "trial_number":34,"observed_reward":0,"unobserved_reward":1},{"RT":2281,"time": "2018-08-15 05:37:37pm", "schedule_type": "STATIC", "schedule_name": "random_0", "is_biased_choice":false,"side_choice": "LEFT", "trial_number":35,"observed_reward":1,"unobserved_reward":0},{"RT":2319,"time": "2018-08-15 05:37:40pm", "schedule_type": "STATIC", "schedule_name": "random_0", "is_biased_choice":false,"side_choice": "LEFT", "trial_number":36,"observed_reward":1,"unobserved_reward":0},{"RT":2329,"time": "2018-08-15 05:37:42pm", "schedule_type": "STATIC", "schedule_name": "random_0", "is_biased_choice":false,"side_choice": "LEFT", "trial_number":37,"observed_reward":1,"unobserved_reward":1},{"RT":2327,"time": "2018-08-15 05:37:44pm", "schedule_type": "STATIC", "schedule_name": "random_0", "is_biased_choice":false,"side_choice": "LEFT", "trial_number":38,"observed_reward":1,"unobserved_reward":0},{"RT":2693,"time": "2018-08-15 05:37:47pm", "schedule_type": "STATIC", "schedule_name": "random_0", "is_biased_choice":false,"side_choice": "LEFT", "trial_number":39,"observed_reward":0,"unobserved_reward":0},{"RT":2325,"time": "2018-08-15 05:37:49pm", "schedule_type": "STATIC", "schedule_name": "random_0", "is_biased_choice":true,"side_choice": "RIGHT", "trial_number":40,"observed_reward":0,"unobserved_reward":0},{"RT":2327,"time": "2018-08-15 05:37:52pm", "schedule_type": "STATIC", "schedule_name": "random_0", "is_biased_choice":false,"side_choice": "LEFT", "trial_number":41,"observed_reward":0,"unobserved_reward":0},{"RT":2246,"time": "2018-08-15 05:37:54pm", "schedule_type": "STATIC", "schedule_name": "random_0", "is_biased_choice":false,"side_choice": "LEFT", "trial_number":42,"observed_reward":0,"unobserved_reward":0},{"RT":2258,"time": "2018-08-15 05:37:56pm", "schedule_type": "STATIC", "schedule_name": "random_0", "is_biased_choice":true,"side_choice": "RIGHT", "trial_number":43,"observed_reward":0,"unobserved_reward":0},{"RT":2262,"time": "2018-08-15 05:37:59pm", "schedule_type": "STATIC", "schedule_name": "random_0", "is_biased_choice":false,"side_choice": "LEFT", "trial_number":44,"observed_reward":1,"unobserved_reward":1},{"RT":2986,"time": "2018-08-15 05:38:02pm", "schedule_type": "STATIC", "schedule_name": "random_0", "is_biased_choice":false,"side_choice": "LEFT", "trial_number":45,"observed_reward":0,"unobserved_reward":1},{"RT":2336,"time": "2018-08-15 05:38:04pm", "schedule_type": "STATIC", "schedule_name": "random_0", "is_biased_choice":true,"side_choice": "RIGHT", "trial_number":46,"observed_reward":0,"unobserved_reward":1},{"RT":2367,"time": "2018-08-15 05:38:06pm", "schedule_type": "STATIC", "schedule_name": "random_0", "is_biased_choice":true,"side_choice": "RIGHT", "trial_number":47,"observed_reward":0,"unobserved_reward":0},{"RT":2288,"time": "2018-08-15 05:38:08pm", "schedule_type": "STATIC", "schedule_name": "random_0", "is_biased_choice":false,"side_choice": "LEFT", "trial_number":48,"observed_reward":0,"unobserved_reward":0},{"RT":2183,"time": "2018-08-15 05:38:11pm", "schedule_type": "STATIC", "schedule_name": "random_0", "is_biased_choice":true,"side_choice": "RIGHT", "trial_number":49,"observed_reward":0,"unobserved_reward":1},{"RT":2858,"time": "2018-08-15 05:38:14pm", "schedule_type": "STATIC", "schedule_name": "random_0", "is_biased_choice":false,"side_choice": "LEFT", "trial_number":50,"observed_reward":1,"unobserved_reward":1},{"RT":2481,"time": "2018-08-15 05:38:16pm", "schedule_type": "STATIC", "schedule_name": "random_0", "is_biased_choice":false,"side_choice": "LEFT", "trial_number":51,"observed_reward":0,"unobserved_reward":0},{"RT":2359,"time": "2018-08-15 05:38:18pm", "schedule_type": "STATIC", "schedule_name": "random_0", "is_biased_choice":false,"side_choice": "LEFT", "trial_number":52,"observed_reward":1,"unobserved_reward":0},{"RT":2457,"time": "2018-08-15 05:38:21pm", "schedule_type": "STATIC", "schedule_name": "random_0", "is_biased_choice":false,"side_choice": "LEFT", "trial_number":53,"observed_reward":0,"unobserved_reward":0},{"RT":2222,"time": "2018-08-15 05:38:23pm", "schedule_type": "STATIC", "schedule_name": "random_0", "is_biased_choice":true,"side_choice": "RIGHT", "trial_number":54,"observed_reward":1,"unobserved_reward":0},{"RT":2305,"time": "2018-08-15 05:38:25pm", "schedule_type": "STATIC", "schedule_name": "random_0", "is_biased_choice":true,"side_choice": "RIGHT", "trial_number":55,"observed_reward":0,"unobserved_reward":0},{"RT":2272,"time": "2018-08-15 05:38:28pm", "schedule_type": "STATIC", "schedule_name": "random_0", "is_biased_choice":false,"side_choice": "LEFT", "trial_number":56,"observed_reward":0,"unobserved_reward":0},{"RT":2552,"time": "2018-08-15 05:38:30pm", "schedule_type": "STATIC", "schedule_name": "random_0", "is_biased_choice":false,"side_choice": "LEFT", "trial_number":57,"observed_reward":0,"unobserved_reward":0},{"RT":2304,"time": "2018-08-15 05:38:33pm", "schedule_type": "STATIC", "schedule_name": "random_0", "is_biased_choice":true,"side_choice": "RIGHT", "trial_number":58,"observed_reward":0,"unobserved_reward":1},{"RT":2328,"time": "2018-08-15 05:38:35pm", "schedule_type": "STATIC", "schedule_name": "random_0", "is_biased_choice":false,"side_choice": "LEFT", "trial_number":59,"observed_reward":1,"unobserved_reward":1},{"RT":2424,"time": "2018-08-15 05:38:37pm", "schedule_type": "STATIC", "schedule_name": "random_0", "is_biased_choice":false,"side_choice": "LEFT", "trial_number":60,"observed_reward":1,"unobserved_reward":1},{"RT":2471,"time": "2018-08-15 05:38:40pm", "schedule_type": "STATIC", "schedule_name": "random_0", "is_biased_choice":false,"side_choice": "LEFT", "trial_number":61,"observed_reward":1,"unobserved_reward":0},{"RT":2417,"time": "2018-08-15 05:38:42pm", "schedule_type": "STATIC", "schedule_name": "random_0", "is_biased_choice":false,"side_choice": "LEFT", "trial_number":62,"observed_reward":0,"unobserved_reward":1},{"RT":2232,"time": "2018-08-15 05:38:44pm", "schedule_type": "STATIC", "schedule_name": "random_0", "is_biased_choice":true,"side_choice": "RIGHT", "trial_number":63,"observed_reward":1,"unobserved_reward":0},{"RT":2353,"time": "2018-08-15 05:38:47pm", "schedule_type": "STATIC", "schedule_name": "random_0", "is_biased_choice":false,"side_choice": "LEFT", "trial_number":64,"observed_reward":1,"unobserved_reward":0},{"RT":2374,"time": "2018-08-15 05:38:49pm", "schedule_type": "STATIC", "schedule_name": "random_0", "is_biased_choice":false,"side_choice": "LEFT", "trial_number":65,"observed_reward":1,"unobserved_reward":0},{"RT":2344,"time": "2018-08-15 05:38:51pm", "schedule_type": "STATIC", "schedule_name": "random_0", "is_biased_choice":false,"side_choice": "LEFT", "trial_number":66,"observed_reward":0,"unobserved_reward":0},{"RT":2456,"time": "2018-08-15 05:38:54pm", "schedule_type": "STATIC", "schedule_name": "random_0", "is_biased_choice":false,"side_choice": "LEFT", "trial_number":67,"observed_reward":0,"unobserved_reward":1},{"RT":2425,"time": "2018-08-15 05:38:56pm", "schedule_type": "STATIC", "schedule_name": "random_0", "is_biased_choice":true,"side_choice": "RIGHT", "trial_number":68,"observed_reward":1,"unobserved_reward":0},{"RT":2479,"time": "2018-08-15 05:38:59pm", "schedule_type": "STATIC", "schedule_name": "random_0", "is_biased_choice":false,"side_choice": "LEFT", "trial_number":69,"observed_reward":0,"unobserved_reward":1},{"RT":2353,"time": "2018-08-15 05:39:01pm", "schedule_type": "STATIC", "schedule_name": "random_0", "is_biased_choice":false,"side_choice": "LEFT", "trial_number":70,"observed_reward":0,"unobserved_reward":0},{"RT":2279,"time": "2018-08-15 05:39:04pm", "schedule_type": "STATIC", "schedule_name": "random_0", "is_biased_choice":true,"side_choice": "RIGHT", "trial_number":71,"observed_reward":1,"unobserved_reward":0},{"RT":2451,"time": "2018-08-15 05:39:06pm", "schedule_type": "STATIC", "schedule_name": "random_0", "is_biased_choice":true,"side_choice": "RIGHT", "trial_number":72,"observed_reward":1,"unobserved_reward":0},{"RT":2221,"time": "2018-08-15 05:39:08pm", "schedule_type": "STATIC", "schedule_name": "random_0", "is_biased_choice":true,"side_choice": "RIGHT", "trial_number":73,"observed_reward":0,"unobserved_reward":0},{"RT":2104,"time": "2018-08-15 05:39:10pm", "schedule_type": "STATIC", "schedule_name": "random_0", "is_biased_choice":false,"side_choice": "LEFT", "trial_number":74,"observed_reward":0,"unobserved_reward":1},{"RT":2199,"time": "2018-08-15 05:39:13pm", "schedule_type": "STATIC", "schedule_name": "random_0", "is_biased_choice":true,"side_choice": "RIGHT", "trial_number":75,"observed_reward":0,"unobserved_reward":0},{"RT":2210,"time": "2018-08-15 05:39:15pm", "schedule_type": "STATIC", "schedule_name": "random_0", "is_biased_choice":false,"side_choice": "LEFT", "trial_number":76,"observed_reward":0,"unobserved_reward":0},{"RT":2464,"time": "2018-08-15 05:39:17pm", "schedule_type": "STATIC", "schedule_name": "random_0", "is_biased_choice":false,"side_choice": "LEFT", "trial_number":77,"observed_reward":0,"unobserved_reward":0},{"RT":2207,"time": "2018-08-15 05:39:19pm", "schedule_type": "STATIC", "schedule_name": "random_0", "is_biased_choice":true,"side_choice": "RIGHT", "trial_number":78,"observed_reward":0,"unobserved_reward":0},{"RT":2185,"time": "2018-08-15 05:39:21pm", "schedule_type": "STATIC", "schedule_name": "random_0", "is_biased_choice":false,"side_choice": "LEFT", "trial_number":79,"observed_reward":0,"unobserved_reward":0},{"RT":2431,"time": "2018-08-15 05:39:24pm", "schedule_type": "STATIC", "schedule_name": "random_0", "is_biased_choice":true,"side_choice": "RIGHT", "trial_number":80,"observed_reward":0,"unobserved_reward":0},{"RT":2274,"time": "2018-08-15 05:39:26pm", "schedule_type": "STATIC", "schedule_name": "random_0", "is_biased_choice":true,"side_choice": "RIGHT", "trial_number":81,"observed_reward":0,"unobserved_reward":0},{"RT":2911,"time": "2018-08-15 05:39:29pm", "schedule_type": "STATIC", "schedule_name": "random_0", "is_biased_choice":false,"side_choice": "LEFT", "trial_number":82,"observed_reward":0,"unobserved_reward":0},{"RT":2184,"time": "2018-08-15 05:39:31pm", "schedule_type": "STATIC", "schedule_name": "random_0", "is_biased_choice":true,"side_choice": "RIGHT", "trial_number":83,"observed_reward":1,"unobserved_reward":0},{"RT":2298,"time": "2018-08-15 05:39:34pm", "schedule_type": "STATIC", "schedule_name": "random_0", "is_biased_choice":true,"side_choice": "RIGHT", "trial_number":84,"observed_reward":0,"unobserved_reward":0},{"RT":2196,"time": "2018-08-15 05:39:36pm", "schedule_type": "STATIC", "schedule_name": "random_0", "is_biased_choice":false,"side_choice": "LEFT", "trial_number":85,"observed_reward":1,"unobserved_reward":0},{"RT":2265,"time": "2018-08-15 05:39:38pm", "schedule_type": "STATIC", "schedule_name": "random_0", "is_biased_choice":false,"side_choice": "LEFT", "trial_number":86,"observed_reward":1,"unobserved_reward":0},{"RT":2265,"time": "2018-08-15 05:39:40pm", "schedule_type": "STATIC", "schedule_name": "random_0", "is_biased_choice":false,"side_choice": "LEFT", "trial_number":87,"observed_reward":0,"unobserved_reward":0},{"RT":2136,"time": "2018-08-15 05:39:43pm", "schedule_type": "STATIC", "schedule_name": "random_0", "is_biased_choice":true,"side_choice": "RIGHT", "trial_number":88,"observed_reward":0,"unobserved_reward":0},{"RT":2167,"time": "2018-08-15 05:39:45pm", "schedule_type": "STATIC", "schedule_name": "random_0", "is_biased_choice":true,"side_choice": "RIGHT", "trial_number":89,"observed_reward":1,"unobserved_reward":0},{"RT":2465,"time": "2018-08-15 05:39:47pm", "schedule_type": "STATIC", "schedule_name": "random_0", "is_biased_choice":true,"side_choice": "RIGHT", "trial_number":90,"observed_reward":0,"unobserved_reward":0},{"RT":2232,"time": "2018-08-15 05:39:49pm", "schedule_type": "STATIC", "schedule_name": "random_0", "is_biased_choice":false,"side_choice": "LEFT", "trial_number":91,"observed_reward":0,"unobserved_reward":0},{"RT":2423,"time": "2018-08-15 05:39:52pm", "schedule_type": "STATIC", "schedule_name": "random_0", "is_biased_choice":false,"side_choice": "LEFT", "trial_number":92,"observed_reward":0,"unobserved_reward":0},{"RT":2384,"time": "2018-08-15 05:39:54pm", "schedule_type": "STATIC", "schedule_name": "random_0", "is_biased_choice":false,"side_choice": "LEFT", "trial_number":93,"observed_reward":0,"unobserved_reward":0},{"RT":2337,"time": "2018-08-15 05:39:56pm", "schedule_type": "STATIC", "schedule_name": "random_0", "is_biased_choice":false,"side_choice": "LEFT", "trial_number":94,"observed_reward":0,"unobserved_reward":1},{"RT":2330,"time": "2018-08-15 05:39:59pm", "schedule_type": "STATIC", "schedule_name": "random_0", "is_biased_choice":false,"side_choice": "LEFT", "trial_number":95,"observed_reward":0,"unobserved_reward":0},{"RT":2389,"time": "2018-08-15 05:40:01pm", "schedule_type": "STATIC", "schedule_name": "random_0", "is_biased_choice":false,"side_choice": "LEFT", "trial_number":96,"observed_reward":0,"unobserved_reward":0},{"RT":2664,"time": "2018-08-15 05:40:04pm", "schedule_type": "STATIC", "schedule_name": "random_0", "is_biased_choice":false,"side_choice": "LEFT", "trial_number":97,"observed_reward":0,"unobserved_reward":0},{"RT":2119,"time": "2018-08-15 05:40:06pm", "schedule_type": "STATIC", "schedule_name": "random_0", "is_biased_choice":true,"side_choice": "RIGHT", "trial_number":98,"observed_reward":1,"unobserved_reward":0},{"RT":4531,"time": "2018-08-15 05:40:10pm", "schedule_type": "STATIC", "schedule_name": "random_0", "is_biased_choice":true,"side_choice": "RIGHT", "trial_number":99,"observed_reward":0,"unobserved_reward":0},