[{"RT":4408,"time": "2018-08-15 03:27:18pm", "schedule_type": "STATIC", "schedule_name": "random_0", "is_biased_choice":true,"side_choice": "LEFT", "trial_number":0,"observed_reward":0,"unobserved_reward":1},{"RT":2815,"time": "2018-08-15 03:27:21pm", "schedule_type": "STATIC", "schedule_name": "random_0", "is_biased_choice":false,"side_choice": "RIGHT", "trial_number":1,"observed_reward":1,"unobserved_reward":0},{"RT":2567,"time": "2018-08-15 03:27:24pm", "schedule_type": "STATIC", "schedule_name": "random_0", "is_biased_choice":false,"side_choice": "RIGHT", "trial_number":2,"observed_reward":1,"unobserved_reward":0},{"RT":2782,"time": "2018-08-15 03:27:27pm", "schedule_type": "STATIC", "schedule_name": "random_0", "is_biased_choice":false,"side_choice": "RIGHT", "trial_number":3,"observed_reward":0,"unobserved_reward":0},{"RT":2301,"time": "2018-08-15 03:27:29pm", "schedule_type": "STATIC", "schedule_name": "random_0", "is_biased_choice":false,"side_choice": "RIGHT", "trial_number":4,"observed_reward":0,"unobserved_reward":0},{"RT":2244,"time": "2018-08-15 03:27:31pm", "schedule_type": "STATIC", "schedule_name": "random_0", "is_biased_choice":false,"side_choice": "RIGHT", "trial_number":5,"observed_reward":0,"unobserved_reward":1},{"RT":2185,"time": "2018-08-15 03:27:33pm", "schedule_type": "STATIC", "schedule_name": "random_0", "is_biased_choice":false,"side_choice": "RIGHT", "trial_number":6,"observed_reward":0,"unobserved_reward":0},{"RT":2400,"time": "2018-08-15 03:27:36pm", "schedule_type": "STATIC", "schedule_name": "random_0", "is_biased_choice":true,"side_choice": "LEFT", "trial_number":7,"observed_reward":0,"unobserved_reward":0},{"RT":2370,"time": "2018-08-15 03:27:38pm", "schedule_type": "STATIC", "schedule_name": "random_0", "is_biased_choice":false,"side_choice": "RIGHT", "trial_number":8,"observed_reward":0,"unobserved_reward":1},{"RT":2413,"time": "2018-08-15 03:27:40pm", "schedule_type": "STATIC", "schedule_name": "random_0", "is_biased_choice":false,"side_choice": "RIGHT", "trial_number":9,"observed_reward":0,"unobserved_reward":0},{"RT":2385,"time": "2018-08-15 03:27:43pm", "schedule_type": "STATIC", "schedule_name": "random_0", "is_biased_choice":true,"side_choice": "LEFT", "trial_number":10,"observed_reward":0,"unobserved_reward":0},{"RT":2149,"time": "2018-08-15 03:27:45pm", "schedule_type": "STATIC", "schedule_name": "random_0", "is_biased_choice":true,"side_choice": "LEFT", "trial_number":11,"observed_reward":1,"unobserved_reward":0},{"RT":2184,"time": "2018-08-15 03:27:47pm", "schedule_type": "STATIC", "schedule_name": "random_0", "is_biased_choice":true,"side_choice": "LEFT", "trial_number":12,"observed_reward":0,"unobserved_reward":0},{"RT":2150,"time": "2018-08-15 03:27:49pm", "schedule_type": "STATIC", "schedule_name": "random_0", "is_biased_choice":false,"side_choice": "RIGHT", "trial_number":13,"observed_reward":1,"unobserved_reward":0},{"RT":2235,"time": "2018-08-15 03:27:52pm", "schedule_type": "STATIC", "schedule_name": "random_0", "is_biased_choice":true,"side_choice": "LEFT", "trial_number":14,"observed_reward":0,"unobserved_reward":1},{"RT":2248,"time": "2018-08-15 03:27:54pm", "schedule_type": "STATIC", "schedule_name": "random_0", "is_biased_choice":true,"side_choice": "LEFT", "trial_number":15,"observed_reward":0,"unobserved_reward":0},{"RT":2165,"time": "2018-08-15 03:27:56pm", "schedule_type": "STATIC", "schedule_name": "random_0", "is_biased_choice":false,"side_choice": "RIGHT", "trial_number":16,"observed_reward":1,"unobserved_reward":0},{"RT":2201,"time": "2018-08-15 03:27:58pm", "schedule_type": "STATIC", "schedule_name": "random_0", "is_biased_choice":false,"side_choice": "RIGHT", "trial_number":17,"observed_reward":0,"unobserved_reward":0},{"RT":2216,"time": "2018-08-15 03:28:00pm", "schedule_type": "STATIC", "schedule_name": "random_0", "is_biased_choice":true,"side_choice": "LEFT", "trial_number":18,"observed_reward":0,"unobserved_reward":0},{"RT":2151,"time": "2018-08-15 03:28:02pm", "schedule_type": "STATIC", "schedule_name": "random_0", "is_biased_choice":false,"side_choice": "RIGHT", "trial_number":19,"observed_reward":0,"unobserved_reward":1},{"RT":2159,"time": "2018-08-15 03:28:05pm", "schedule_type": "STATIC", "schedule_name": "random_0", "is_biased_choice":false,"side_choice": "RIGHT", "trial_number":20,"observed_reward":1,"unobserved_reward":1},{"RT":2175,"time": "2018-08-15 03:28:07pm", "schedule_type": "STATIC", "schedule_name": "random_0", "is_biased_choice":false,"side_choice": "RIGHT", "trial_number":21,"observed_reward":0,"unobserved_reward":0},{"RT":2800,"time": "2018-08-15 03:28:10pm", "schedule_type": "STATIC", "schedule_name": "random_0", "is_biased_choice":true,"side_choice": "LEFT", "trial_number":22,"observed_reward":0,"unobserved_reward":0},{"RT":2167,"time": "2018-08-15 03:28:12pm", "schedule_type": "STATIC", "schedule_name": "random_0", "is_biased_choice":true,"side_choice": "LEFT", "trial_number":23,"observed_reward":0,"unobserved_reward":0},{"RT":2117,"time": "2018-08-15 03:28:14pm", "schedule_type": "STATIC", "schedule_name": "random_0", "is_biased_choice":true,"side_choice": "LEFT", "trial_number":24,"observed_reward":0,"unobserved_reward":0},{"RT":2914,"time": "2018-08-15 03:28:17pm", "schedule_type": "STATIC", "schedule_name": "random_0", "is_biased_choice":false,"side_choice": "RIGHT", "trial_number":25,"observed_reward":0,"unobserved_reward":0},{"RT":2321,"time": "2018-08-15 03:28:19pm", "schedule_type": "STATIC", "schedule_name": "random_0", "is_biased_choice":true,"side_choice": "LEFT", "trial_number":26,"observed_reward":0,"unobserved_reward":0},{"RT":2114,"time": "2018-08-15 03:28:21pm", "schedule_type": "STATIC", "schedule_name": "random_0", "is_biased_choice":true,"side_choice": "LEFT", "trial_number":27,"observed_reward":1,"unobserved_reward":0},{"RT":2118,"time": "2018-08-15 03:28:23pm", "schedule_type": "STATIC", "schedule_name": "random_0", "is_biased_choice":true,"side_choice": "LEFT", "trial_number":28,"observed_reward":0,"unobserved_reward":0},{"RT":2267,"time": "2018-08-15 03:28:26pm", "schedule_type": "STATIC", "schedule_name": "random_0", "is_biased_choice":true,"side_choice": "LEFT", "trial_number":29,"observed_reward":0,"unobserved_reward":0},{"RT":2165,"time": "2018-08-15 03:28:28pm", "schedule_type": "STATIC", "schedule_name": "random_0", "is_biased_choice":false,"side_choice": "RIGHT", "trial_number":30,"observed_reward":0,"unobserved_reward":0},{"RT":2204,"time": "2018-08-15 03:28:30pm", "schedule_type": "STATIC", "schedule_name": "random_0", "is_biased_choice":true,"side_choice": "LEFT", "trial_number":31,"observed_reward":0,"unobserved_reward":0},{"RT":2285,"time": "2018-08-15 03:28:32pm", "schedule_type": "STATIC", "schedule_name": "random_0", "is_biased_choice":true,"side_choice": "LEFT", "trial_number":32,"observed_reward":0,"unobserved_reward":0},{"RT":2142,"time": "2018-08-15 03:28:34pm", "schedule_type": "STATIC", "schedule_name": "random_0", "is_biased_choice":true,"side_choice": "LEFT", "trial_number":33,"observed_reward":0,"unobserved_reward":0},{"RT":2603,"time": "2018-08-15 03:28:37pm", "schedule_type": "STATIC", "schedule_name": "random_0", "is_biased_choice":false,"side_choice": "RIGHT", "trial_number":34,"observed_reward":1,"unobserved_reward":0},{"RT":2250,"time": "2018-08-15 03:28:39pm", "schedule_type": "STATIC", "schedule_name": "random_0", "is_biased_choice":false,"side_choice": "RIGHT", "trial_number":35,"observed_reward":1,"unobserved_reward":0},{"RT":2166,"time": "2018-08-15 03:28:41pm", "schedule_type": "STATIC", "schedule_name": "random_0", "is_biased_choice":false,"side_choice": "RIGHT", "trial_number":36,"observed_reward":1,"unobserved_reward":0},{"RT":2184,"time": "2018-08-15 03:28:44pm", "schedule_type": "STATIC", "schedule_name": "random_0", "is_biased_choice":false,"side_choice": "RIGHT", "trial_number":37,"observed_reward":1,"unobserved_reward":1},{"RT":2232,"time": "2018-08-15 03:28:46pm", "schedule_type": "STATIC", "schedule_name": "random_0", "is_biased_choice":false,"side_choice": "RIGHT", "trial_number":38,"observed_reward":1,"unobserved_reward":0},{"RT":2169,"time": "2018-08-15 03:28:48pm", "schedule_type": "STATIC", "schedule_name": "random_0", "is_biased_choice":false,"side_choice": "RIGHT", "trial_number":39,"observed_reward":0,"unobserved_reward":0},{"RT":2281,"time": "2018-08-15 03:28:50pm", "schedule_type": "STATIC", "schedule_name": "random_0", "is_biased_choice":true,"side_choice": "LEFT", "trial_number":40,"observed_reward":0,"unobserved_reward":0},{"RT":2168,"time": "2018-08-15 03:28:52pm", "schedule_type": "STATIC", "schedule_name": "random_0", "is_biased_choice":false,"side_choice": "RIGHT", "trial_number":41,"observed_reward":0,"unobserved_reward":0},{"RT":2082,"time": "2018-08-15 03:28:55pm", "schedule_type": "STATIC", "schedule_name": "random_0", "is_biased_choice":true,"side_choice": "LEFT", "trial_number":42,"observed_reward":0,"unobserved_reward":0},{"RT":2151,"time": "2018-08-15 03:28:57pm", "schedule_type": "STATIC", "schedule_name": "random_0", "is_biased_choice":true,"side_choice": "LEFT", "trial_number":43,"observed_reward":0,"unobserved_reward":0},{"RT":2102,"time": "2018-08-15 03:28:59pm", "schedule_type": "STATIC", "schedule_name": "random_0", "is_biased_choice":false,"side_choice": "RIGHT", "trial_number":44,"observed_reward":1,"unobserved_reward":1},{"RT":2117,"time": "2018-08-15 03:29:01pm", "schedule_type": "STATIC", "schedule_name": "random_0", "is_biased_choice":false,"side_choice": "RIGHT", "trial_number":45,"observed_reward":0,"unobserved_reward":1},{"RT":2082,"time": "2018-08-15 03:29:03pm", "schedule_type": "STATIC", "schedule_name": "random_0", "is_biased_choice":false,"side_choice": "RIGHT", "trial_number":46,"observed_reward":1,"unobserved_reward":0},{"RT":2200,"time": "2018-08-15 03:29:05pm", "schedule_type": "STATIC", "schedule_name": "random_0", "is_biased_choice":false,"side_choice": "RIGHT", "trial_number":47,"observed_reward":0,"unobserved_reward":0},{"RT":2181,"time": "2018-08-15 03:29:07pm", "schedule_type": "STATIC", "schedule_name": "random_0", "is_biased_choice":false,"side_choice": "RIGHT", "trial_number":48,"observed_reward":0,"unobserved_reward":0},{"RT":2120,"time": "2018-08-15 03:29:10pm", "schedule_type": "STATIC", "schedule_name": "random_0", "is_biased_choice":false,"side_choice": "RIGHT", "trial_number":49,"observed_reward":1,"unobserved_reward":0},{"RT":2168,"time": "2018-08-15 03:29:14pm", "schedule_type": "STATIC", "schedule_name": "random_0", "is_biased_choice":false,"side_choice": "RIGHT", "trial_number":50,"observed_reward":1,"unobserved_reward":1},{"RT":3363,"time": "2018-08-15 03:29:16pm", "schedule_type": "STATIC", "schedule_name": "random_0", "is_biased_choice":false,"side_choice": "RIGHT", "trial_number":51,"observed_reward":0,"unobserved_reward":0},{"RT":2350,"time": "2018-08-15 03:29:17pm", "schedule_type": "STATIC", "schedule_name": "random_0", "is_biased_choice":false,"side_choice": "RIGHT", "trial_number":52,"observed_reward":1,"unobserved_reward":0},{"RT":2534,"time": "2018-08-15 03:29:20pm", "schedule_type": "STATIC", "schedule_name": "random_0", "is_biased_choice":false,"side_choice": "RIGHT", "trial_number":53,"observed_reward":0,"unobserved_reward":0},{"RT":2201,"time": "2018-08-15 03:29:22pm", "schedule_type": "STATIC", "schedule_name": "random_0", "is_biased_choice":false,"side_choice": "RIGHT", "trial_number":54,"observed_reward":0,"unobserved_reward":1},{"RT":2098,"time": "2018-08-15 03:29:24pm", "schedule_type": "STATIC", "schedule_name": "random_0", "is_biased_choice":false,"side_choice": "RIGHT", "trial_number":55,"observed_reward":0,"unobserved_reward":0},{"RT":2235,"time": "2018-08-15 03:29:26pm", "schedule_type": "STATIC", "schedule_name": "random_0", "is_biased_choice":false,"side_choice": "RIGHT", "trial_number":56,"observed_reward":0,"unobserved_reward":0},{"RT":2497,"time": "2018-08-15 03:29:29pm", "schedule_type": "STATIC", "schedule_name": "random_0", "is_biased_choice":false,"side_choice": "RIGHT", "trial_number":57,"observed_reward":0,"unobserved_reward":0},{"RT":2338,"time": "2018-08-15 03:29:31pm", "schedule_type": "STATIC", "schedule_name": "random_0", "is_biased_choice":false,"side_choice": "RIGHT", "trial_number":58,"observed_reward":1,"unobserved_reward":0},{"RT":2172,"time": "2018-08-15 03:29:34pm", "schedule_type": "STATIC", "schedule_name": "random_0", "is_biased_choice":false,"side_choice": "RIGHT", "trial_number":59,"observed_reward":1,"unobserved_reward":1},{"RT":2165,"time": "2018-08-15 03:29:36pm", "schedule_type": "STATIC", "schedule_name": "random_0", "is_biased_choice":true,"side_choice": "LEFT", "trial_number":60,"observed_reward":1,"unobserved_reward":1},{"RT":2280,"time": "2018-08-15 03:29:38pm", "schedule_type": "STATIC", "schedule_name": "random_0", "is_biased_choice":true,"side_choice": "LEFT", "trial_number":61,"observed_reward":0,"unobserved_reward":1},{"RT":2416,"time": "2018-08-15 03:29:40pm", "schedule_type": "STATIC", "schedule_name": "random_0", "is_biased_choice":false,"side_choice": "RIGHT", "trial_number":62,"observed_reward":0,"unobserved_reward":1},{"RT":2070,"time": "2018-08-15 03:29:42pm", "schedule_type": "STATIC", "schedule_name": "random_0", "is_biased_choice":false,"side_choice": "RIGHT", "trial_number":63,"observed_reward":0,"unobserved_reward":1},{"RT":2132,"time": "2018-08-15 03:29:45pm", "schedule_type": "STATIC", "schedule_name": "random_0", "is_biased_choice":false,"side_choice": "RIGHT", "trial_number":64,"observed_reward":1,"unobserved_reward":0},{"RT":2248,"time": "2018-08-15 03:29:47pm", "schedule_type": "STATIC", "schedule_name": "random_0", "is_biased_choice":false,"side_choice": "RIGHT", "trial_number":65,"observed_reward":1,"unobserved_reward":0},{"RT":2568,"time": "2018-08-15 03:29:49pm", "schedule_type": "STATIC", "schedule_name": "random_0", "is_biased_choice":false,"side_choice": "RIGHT", "trial_number":66,"observed_reward":0,"unobserved_reward":0},{"RT":2166,"time": "2018-08-15 03:29:52pm", "schedule_type": "STATIC", "schedule_name": "random_0", "is_biased_choice":false,"side_choice": "RIGHT", "trial_number":67,"observed_reward":0,"unobserved_reward":1},{"RT":2201,"time": "2018-08-15 03:29:54pm", "schedule_type": "STATIC", "schedule_name": "random_0", "is_biased_choice":false,"side_choice": "RIGHT", "trial_number":68,"observed_reward":0,"unobserved_reward":1},{"RT":2317,"time": "2018-08-15 03:29:56pm", "schedule_type": "STATIC", "schedule_name": "random_0", "is_biased_choice":false,"side_choice": "RIGHT", "trial_number":69,"observed_reward":0,"unobserved_reward":1},{"RT":2200,"time": "2018-08-15 03:29:58pm", "schedule_type": "STATIC", "schedule_name": "random_0", "is_biased_choice":true,"side_choice": "LEFT", "trial_number":70,"observed_reward":0,"unobserved_reward":0},{"RT":2166,"time": "2018-08-15 03:30:00pm", "schedule_type": "STATIC", "schedule_name": "random_0", "is_biased_choice":false,"side_choice": "RIGHT", "trial_number":71,"observed_reward":0,"unobserved_reward":1},{"RT":2167,"time": "2018-08-15 03:30:03pm", "schedule_type": "STATIC", "schedule_name": "random_0", "is_biased_choice":false,"side_choice": "RIGHT", "trial_number":72,"observed_reward":0,"unobserved_reward":1},{"RT":7064,"time": "2018-08-15 03:30:10pm", "schedule_type": "STATIC", "schedule_name": "random_0", "is_biased_choice":false,"side_choice": "RIGHT", "trial_number":73,"observed_reward":0,"unobserved_reward":0},{"RT":2054,"time": "2018-08-15 03:30:12pm", "schedule_type": "STATIC", "schedule_name": "random_0", "is_biased_choice":true,"side_choice": "LEFT", "trial_number":74,"observed_reward":1,"unobserved_reward":0},{"RT":2366,"time": "2018-08-15 03:30:14pm", "schedule_type": "STATIC", "schedule_name": "random_0", "is_biased_choice":false,"side_choice": "RIGHT", "trial_number":75,"observed_reward":0,"unobserved_reward":0},{"RT":2101,"time": "2018-08-15 03:30:16pm", "schedule_type": "STATIC", "schedule_name": "random_0", "is_biased_choice":true,"side_choice": "LEFT", "trial_number":76,"observed_reward":0,"unobserved_reward":0},{"RT":2099,"time": "2018-08-15 03:30:18pm", "schedule_type": "STATIC", "schedule_name": "random_0", "is_biased_choice":true,"side_choice": "LEFT", "trial_number":77,"observed_reward":0,"unobserved_reward":0},{"RT":2066,"time": "2018-08-15 03:30:20pm", "schedule_type": "STATIC", "schedule_name": "random_0", "is_biased_choice":true,"side_choice": "LEFT", "trial_number":78,"observed_reward":0,"unobserved_reward":0},{"RT":2403,"time": "2018-08-15 03:30:23pm", "schedule_type": "STATIC", "schedule_name": "random_0", "is_biased_choice":false,"side_choice": "RIGHT", "trial_number":79,"observed_reward":0,"unobserved_reward":0},{"RT":2383,"time": "2018-08-15 03:30:25pm", "schedule_type": "STATIC", "schedule_name": "random_0", "is_biased_choice":false,"side_choice": "RIGHT", "trial_number":80,"observed_reward":0,"unobserved_reward":0},{"RT":4303,"time": "2018-08-15 03:30:30pm", "schedule_type": "STATIC", "schedule_name": "random_0", "is_biased_choice":false,"side_choice": "RIGHT", "trial_number":81,"observed_reward":0,"unobserved_reward":0},{"RT":2711,"time": "2018-08-15 03:30:32pm", "schedule_type": "STATIC", "schedule_name": "random_0", "is_biased_choice":true,"side_choice": "LEFT", "trial_number":82,"observed_reward":0,"unobserved_reward":0},{"RT":2160,"time": "2018-08-15 03:30:34pm", "schedule_type": "STATIC", "schedule_name": "random_0", "is_biased_choice":false,"side_choice": "RIGHT", "trial_number":83,"observed_reward":0,"unobserved_reward":1},{"RT":2112,"time": "2018-08-15 03:30:36pm", "schedule_type": "STATIC", "schedule_name": "random_0", "is_biased_choice":false,"side_choice": "RIGHT", "trial_number":84,"observed_reward":0,"unobserved_reward":0},{"RT":2448,"time": "2018-08-15 03:30:39pm", "schedule_type": "STATIC", "schedule_name": "random_0", "is_biased_choice":false,"side_choice": "RIGHT", "trial_number":85,"observed_reward":1,"unobserved_reward":0},{"RT":3912,"time": "2018-08-15 03:30:43pm", "schedule_type": "STATIC", "schedule_name": "random_0", "is_biased_choice":false,"side_choice": "RIGHT", "trial_number":86,"observed_reward":1,"unobserved_reward":0},{"RT":2160,"time": "2018-08-15 03:30:45pm", "schedule_type": "STATIC", "schedule_name": "random_0", "is_biased_choice":false,"side_choice": "RIGHT", "trial_number":87,"observed_reward":0,"unobserved_reward":0},{"RT":2415,"time": "2018-08-15 03:30:47pm", "schedule_type": "STATIC", "schedule_name": "random_0", "is_biased_choice":true,"side_choice": "LEFT", "trial_number":88,"observed_reward":0,"unobserved_reward":0},{"RT":2342,"time": "2018-08-15 03:30:50pm", "schedule_type": "STATIC", "schedule_name": "random_0", "is_biased_choice":false,"side_choice": "RIGHT", "trial_number":89,"observed_reward":0,"unobserved_reward":1},{"RT":2023,"time": "2018-08-15 03:30:52pm", "schedule_type": "STATIC", "schedule_name": "random_0", "is_biased_choice":true,"side_choice": "LEFT", "trial_number":90,"observed_reward":0,"unobserved_reward":0},{"RT":2174,"time": "2018-08-15 03:30:54pm", "schedule_type": "STATIC", "schedule_name": "random_0", "is_biased_choice":false,"side_choice": "RIGHT", "trial_number":91,"observed_reward":0,"unobserved_reward":0},{"RT":2104,"time": "2018-08-15 03:30:56pm", "schedule_type": "STATIC", "schedule_name": "random_0", "is_biased_choice":false,"side_choice": "RIGHT", "trial_number":92,"observed_reward":0,"unobserved_reward":0},{"RT":2170,"time": "2018-08-15 03:30:58pm", "schedule_type": "STATIC", "schedule_name": "random_0", "is_biased_choice":false,"side_choice": "RIGHT", "trial_number":93,"observed_reward":0,"unobserved_reward":0},{"RT":2140,"time": "2018-08-15 03:31:00pm", "schedule_type": "STATIC", "schedule_name": "random_0", "is_biased_choice":false,"side_choice": "RIGHT", "trial_number":94,"observed_reward":0,"unobserved_reward":1},{"RT":2096,"time": "2018-08-15 03:31:02pm", "schedule_type": "STATIC", "schedule_name": "random_0", "is_biased_choice":true,"side_choice": "LEFT", "trial_number":95,"observed_reward":0,"unobserved_reward":0},{"RT":2114,"time": "2018-08-15 03:31:05pm", "schedule_type": "STATIC", "schedule_name": "random_0", "is_biased_choice":false,"side_choice": "RIGHT", "trial_number":96,"observed_reward":0,"unobserved_reward":0},{"RT":2206,"time": "2018-08-15 03:31:07pm", "schedule_type": "STATIC", "schedule_name": "random_0", "is_biased_choice":false,"side_choice": "RIGHT", "trial_number":97,"observed_reward":0,"unobserved_reward":0},{"RT":2440,"time": "2018-08-15 03:31:09pm", "schedule_type": "STATIC", "schedule_name": "random_0", "is_biased_choice":false,"side_choice": "RIGHT", "trial_number":98,"observed_reward":0,"unobserved_reward":1},{"RT":2207,"time": "2018-08-15 03:31:11pm", "schedule_type": "STATIC", "schedule_name": "random_0", "is_biased_choice":false,"side_choice": "RIGHT", "trial_number":99,"observed_reward":0,"unobserved_reward":0},