trial_number, time, schedule_type, schedule_name, is_biased_choice, side_choice, RT, observed_reward, unobserved_reward, biased_reward, unbiased_reward
0,2018-08-15 06:14:53pm, STATIC, random_0, true, LEFT, 4311, 0, 1, 0, 1
1,2018-08-15 06:15:04pm, STATIC, random_0, false, RIGHT, 11559, 1, 0, 0, 1
2,2018-08-15 06:15:09pm, STATIC, random_0, true, LEFT, 4296, 0, 1, 0, 1
3,2018-08-15 06:15:11pm, STATIC, random_0, false, RIGHT, 2592, 0, 0, 0, 0
4,2018-08-15 06:15:14pm, STATIC, random_0, false, RIGHT, 2865, 0, 0, 0, 0
5,2018-08-15 06:15:16pm, STATIC, random_0, true, LEFT, 2343, 1, 0, 1, 0
6,2018-08-15 06:16:00pm, STATIC, random_0, false, RIGHT, 42708, 0, 0, 0, 0
7,2018-08-15 06:16:03pm, STATIC, random_0, true, LEFT, 2506, 0, 0, 0, 0
8,2018-08-15 06:16:04pm, STATIC, random_0, false, RIGHT, 2350, 0, 1, 1, 0
9,2018-08-15 06:16:07pm, STATIC, random_0, true, LEFT, 2745, 0, 0, 0, 0
10,2018-08-15 06:16:09pm, STATIC, random_0, false, RIGHT, 2216, 0, 0, 0, 0
11,2018-08-15 06:16:17pm, STATIC, random_0, true, LEFT, 8192, 1, 0, 1, 0
12,2018-08-15 06:16:23pm, STATIC, random_0, false, RIGHT, 6108, 0, 0, 0, 0
13,2018-08-15 06:16:26pm, STATIC, random_0, true, LEFT, 2475, 0, 1, 0, 1
14,2018-08-15 06:16:29pm, STATIC, random_0, false, RIGHT, 3329, 1, 0, 0, 1
15,2018-08-15 06:16:32pm, STATIC, random_0, false, RIGHT, 2976, 0, 0, 0, 0
16,2018-08-15 06:16:35pm, STATIC, random_0, true, LEFT, 2407, 0, 1, 0, 1
17,2018-08-15 06:16:37pm, STATIC, random_0, true, LEFT, 2394, 0, 0, 0, 0
18,2018-08-15 06:16:39pm, STATIC, random_0, false, RIGHT, 2130, 0, 0, 0, 0
19,2018-08-15 06:16:42pm, STATIC, random_0, true, LEFT, 2552, 1, 0, 1, 0
20,2018-08-15 06:16:45pm, STATIC, random_0, false, RIGHT, 3128, 1, 1, 1, 1
21,2018-08-15 06:16:48pm, STATIC, random_0, true, LEFT, 3352, 0, 0, 0, 0
22,2018-08-15 06:16:51pm, STATIC, random_0, false, RIGHT, 2439, 0, 0, 0, 0
23,2018-08-15 06:16:53pm, STATIC, random_0, false, RIGHT, 2840, 0, 0, 0, 0
24,2018-08-15 06:16:56pm, STATIC, random_0, false, RIGHT, 2112, 0, 0, 0, 0
25,2018-08-15 06:16:58pm, STATIC, random_0, true, LEFT, 2178, 0, 0, 0, 0
26,2018-08-15 06:17:00pm, STATIC, random_0, true, LEFT, 2118, 0, 0, 0, 0
27,2018-08-15 06:17:02pm, STATIC, random_0, false, RIGHT, 2344, 0, 1, 1, 0
28,2018-08-15 06:17:04pm, STATIC, random_0, false, RIGHT, 2312, 0, 0, 0, 0
29,2018-08-15 06:17:07pm, STATIC, random_0, true, LEFT, 2119, 0, 0, 0, 0
30,2018-08-15 06:17:09pm, STATIC, random_0, false, RIGHT, 2384, 0, 0, 0, 0
31,2018-08-15 06:17:27pm, STATIC, random_0, false, RIGHT, 17841, 0, 0, 0, 0
32,2018-08-15 06:17:29pm, STATIC, random_0, true, LEFT, 2312, 0, 0, 0, 0
33,2018-08-15 06:17:32pm, STATIC, random_0, false, RIGHT, 2496, 0, 0, 0, 0
34,2018-08-15 06:17:34pm, STATIC, random_0, true, LEFT, 2128, 0, 1, 0, 1
35,2018-08-15 06:17:36pm, STATIC, random_0, false, RIGHT, 2008, 1, 0, 0, 1
36,2018-08-15 06:17:38pm, STATIC, random_0, false, RIGHT, 1965, 1, 0, 0, 1
37,2018-08-15 06:17:40pm, STATIC, random_0, true, LEFT, 2088, 1, 1, 1, 1
38,2018-08-15 06:17:42pm, STATIC, random_0, false, RIGHT, 2352, 1, 0, 0, 1
39,2018-08-15 06:17:44pm, STATIC, random_0, false, RIGHT, 2270, 0, 0, 0, 0
40,2018-08-15 06:17:47pm, STATIC, random_0, false, RIGHT, 2360, 0, 0, 0, 0
41,2018-08-15 06:17:49pm, STATIC, random_0, true, LEFT, 2194, 0, 0, 0, 0
42,2018-08-15 06:17:51pm, STATIC, random_0, false, RIGHT, 2183, 0, 0, 0, 0
43,2018-08-15 06:17:53pm, STATIC, random_0, true, LEFT, 2056, 0, 0, 0, 0
44,2018-08-15 06:17:56pm, STATIC, random_0, false, RIGHT, 2184, 1, 1, 1, 1
45,2018-08-15 06:17:58pm, STATIC, random_0, false, RIGHT, 2264, 0, 1, 1, 0
46,2018-08-15 06:18:00pm, STATIC, random_0, true, LEFT, 2401, 0, 1, 0, 1
47,2018-08-15 06:18:24pm, STATIC, random_0, false, RIGHT, 24240, 0, 0, 0, 0
48,2018-08-15 06:18:27pm, STATIC, random_0, true, LEFT, 2376, 0, 0, 0, 0
49,2018-08-15 06:18:33pm, STATIC, random_0, false, RIGHT, 6215, 1, 0, 0, 1
50,2018-08-15 06:18:35pm, STATIC, random_0, false, RIGHT, 2265, 1, 1, 1, 1
51,2018-08-15 06:18:37pm, STATIC, random_0, false, RIGHT, 2129, 0, 0, 0, 0
52,2018-08-15 06:18:50pm, STATIC, random_0, false, RIGHT, 12114, 1, 0, 0, 1
53,2018-08-15 06:19:00pm, STATIC, random_0, false, RIGHT, 10783, 0, 0, 0, 0
54,2018-08-15 06:19:06pm, STATIC, random_0, true, LEFT, 5464, 1, 0, 1, 0
55,2018-08-15 06:19:08pm, STATIC, random_0, true, LEFT, 2105, 0, 0, 0, 0
56,2018-08-15 06:19:10pm, STATIC, random_0, true, LEFT, 2110, 0, 0, 0, 0
57,2018-08-15 06:19:13pm, STATIC, random_0, false, RIGHT, 2568, 0, 0, 0, 0
58,2018-08-15 06:19:14pm, STATIC, random_0, true, LEFT, 2040, 0, 1, 0, 1
59,2018-08-15 06:19:17pm, STATIC, random_0, false, RIGHT, 2220, 1, 1, 1, 1
60,2018-08-15 06:19:19pm, STATIC, random_0, false, RIGHT, 2229, 1, 1, 1, 1
61,2018-08-15 06:19:21pm, STATIC, random_0, false, RIGHT, 2096, 1, 0, 0, 1
62,2018-08-15 06:19:23pm, STATIC, random_0, false, RIGHT, 2040, 0, 1, 1, 0
63,2018-08-15 06:19:25pm, STATIC, random_0, true, LEFT, 2040, 1, 0, 1, 0
64,2018-08-15 06:19:27pm, STATIC, random_0, true, LEFT, 2273, 0, 1, 0, 1
65,2018-08-15 06:19:30pm, STATIC, random_0, false, RIGHT, 2462, 1, 0, 0, 1
66,2018-08-15 06:19:32pm, STATIC, random_0, false, RIGHT, 2024, 0, 0, 0, 0
67,2018-08-15 06:19:34pm, STATIC, random_0, true, LEFT, 2105, 1, 0, 1, 0
68,2018-08-15 06:19:36pm, STATIC, random_0, false, RIGHT, 2273, 0, 1, 1, 0
69,2018-08-15 06:19:38pm, STATIC, random_0, true, LEFT, 1996, 1, 0, 1, 0
70,2018-08-15 06:19:40pm, STATIC, random_0, true, LEFT, 2296, 0, 0, 0, 0
71,2018-08-15 06:19:43pm, STATIC, random_0, false, RIGHT, 2337, 0, 1, 1, 0
72,2018-08-15 06:19:45pm, STATIC, random_0, true, LEFT, 2118, 1, 0, 1, 0
73,2018-08-15 06:19:47pm, STATIC, random_0, true, LEFT, 2193, 0, 0, 0, 0
74,2018-08-15 06:19:49pm, STATIC, random_0, false, RIGHT, 1999, 0, 1, 1, 0
75,2018-08-15 06:19:51pm, STATIC, random_0, true, LEFT, 2081, 0, 0, 0, 0
76,2018-08-15 06:19:53pm, STATIC, random_0, true, LEFT, 2120, 0, 0, 0, 0
77,2018-08-15 06:19:55pm, STATIC, random_0, false, RIGHT, 2136, 0, 0, 0, 0
78,2018-08-15 06:19:58pm, STATIC, random_0, true, LEFT, 2040, 0, 0, 0, 0
79,2018-08-15 06:20:00pm, STATIC, random_0, true, LEFT, 2129, 0, 0, 0, 0
80,2018-08-15 06:20:02pm, STATIC, random_0, false, RIGHT, 2303, 0, 0, 0, 0
81,2018-08-15 06:20:04pm, STATIC, random_0, false, RIGHT, 2264, 0, 0, 0, 0
82,2018-08-15 06:20:07pm, STATIC, random_0, true, LEFT, 2280, 0, 0, 0, 0
83,2018-08-15 06:20:09pm, STATIC, random_0, false, RIGHT, 2233, 0, 1, 1, 0
84,2018-08-15 06:20:51pm, STATIC, random_0, true, LEFT, 42340, 0, 0, 0, 0
85,2018-08-15 06:20:53pm, STATIC, random_0, false, RIGHT, 2263, 1, 0, 0, 1
86,2018-08-15 06:20:55pm, STATIC, random_0, false, RIGHT, 2048, 1, 0, 0, 1
87,2018-08-15 06:20:57pm, STATIC, random_0, false, RIGHT, 2056, 0, 0, 0, 0
88,2018-08-15 06:21:00pm, STATIC, random_0, true, LEFT, 2288, 0, 0, 0, 0
89,2018-08-15 06:21:02pm, STATIC, random_0, false, RIGHT, 2161, 0, 1, 1, 0
90,2018-08-15 06:21:04pm, STATIC, random_0, true, LEFT, 2384, 0, 0, 0, 0
91,2018-08-15 06:21:06pm, STATIC, random_0, false, RIGHT, 2136, 0, 0, 0, 0
92,2018-08-15 06:21:09pm, STATIC, random_0, true, LEFT, 2176, 0, 0, 0, 0
93,2018-08-15 06:21:11pm, STATIC, random_0, false, RIGHT, 2047, 0, 0, 0, 0
94,2018-08-15 06:21:13pm, STATIC, random_0, true, LEFT, 2064, 1, 0, 1, 0
95,2018-08-15 06:21:15pm, STATIC, random_0, true, LEFT, 2024, 0, 0, 0, 0
96,2018-08-15 06:21:17pm, STATIC, random_0, false, RIGHT, 2088, 0, 0, 0, 0
97,2018-08-15 06:21:19pm, STATIC, random_0, true, LEFT, 2129, 0, 0, 0, 0
98,2018-08-15 06:21:21pm, STATIC, random_0, false, RIGHT, 2009, 0, 1, 1, 0
99,2018-08-15 06:21:23pm, STATIC, random_0, true, LEFT, 2367, 0, 0, 0, 0
