trial_number, time, schedule_type, schedule_name, is_biased_choice, side_choice, RT, observed_reward, unobserved_reward, biased_reward, unbiased_reward
0,2018-08-15 01:42:37pm, STATIC, random_0, false, LEFT, 7923, 1, 0, 0, 1
1,2018-08-15 01:42:46pm, STATIC, random_0, true, RIGHT, 8904, 0, 1, 0, 1
2,2018-08-15 01:42:49pm, STATIC, random_0, false, LEFT, 3471, 1, 0, 0, 1
3,2018-08-15 01:42:53pm, STATIC, random_0, false, LEFT, 3601, 0, 0, 0, 0
4,2018-08-15 01:43:02pm, STATIC, random_0, false, LEFT, 9559, 0, 0, 0, 0
5,2018-08-15 01:43:06pm, STATIC, random_0, true, RIGHT, 3441, 1, 0, 1, 0
6,2018-08-15 01:43:10pm, STATIC, random_0, false, LEFT, 3448, 0, 0, 0, 0
7,2018-08-15 01:43:12pm, STATIC, random_0, false, LEFT, 3088, 0, 0, 0, 0
8,2018-08-15 01:43:15pm, STATIC, random_0, true, RIGHT, 2952, 1, 0, 1, 0
9,2018-08-15 01:43:19pm, STATIC, random_0, false, LEFT, 3248, 0, 0, 0, 0
10,2018-08-15 01:43:21pm, STATIC, random_0, false, LEFT, 2664, 0, 0, 0, 0
11,2018-08-15 01:43:24pm, STATIC, random_0, true, RIGHT, 3327, 1, 0, 1, 0
12,2018-08-15 01:43:28pm, STATIC, random_0, true, RIGHT, 3376, 0, 0, 0, 0
13,2018-08-15 01:43:30pm, STATIC, random_0, false, LEFT, 2688, 1, 0, 0, 1
14,2018-08-15 01:43:33pm, STATIC, random_0, false, LEFT, 2688, 1, 0, 0, 1
15,2018-08-15 01:43:37pm, STATIC, random_0, false, LEFT, 3424, 0, 0, 0, 0
16,2018-08-15 01:43:39pm, STATIC, random_0, true, RIGHT, 2784, 0, 1, 0, 1
17,2018-08-15 01:43:42pm, STATIC, random_0, false, LEFT, 2296, 0, 0, 0, 0
18,2018-08-15 01:43:45pm, STATIC, random_0, false, LEFT, 3248, 0, 0, 0, 0
19,2018-08-15 01:43:48pm, STATIC, random_0, false, LEFT, 2864, 0, 1, 1, 0
20,2018-08-15 01:43:51pm, STATIC, random_0, true, RIGHT, 3000, 1, 1, 1, 1
21,2018-08-15 01:43:53pm, STATIC, random_0, true, RIGHT, 2568, 0, 0, 0, 0
22,2018-08-15 01:43:56pm, STATIC, random_0, true, RIGHT, 2552, 0, 0, 0, 0
23,2018-08-15 01:43:59pm, STATIC, random_0, false, LEFT, 2999, 0, 0, 0, 0
24,2018-08-15 01:44:02pm, STATIC, random_0, true, RIGHT, 2801, 0, 0, 0, 0
25,2018-08-15 01:44:04pm, STATIC, random_0, false, LEFT, 2831, 0, 0, 0, 0
26,2018-08-15 01:44:07pm, STATIC, random_0, false, LEFT, 2602, 0, 0, 0, 0
27,2018-08-15 01:44:10pm, STATIC, random_0, false, LEFT, 2766, 0, 1, 1, 0
28,2018-08-15 01:44:13pm, STATIC, random_0, false, LEFT, 2994, 0, 0, 0, 0
29,2018-08-15 01:44:15pm, STATIC, random_0, false, LEFT, 2615, 0, 0, 0, 0
30,2018-08-15 01:44:18pm, STATIC, random_0, false, LEFT, 2576, 0, 0, 0, 0
31,2018-08-15 01:44:27pm, STATIC, random_0, true, RIGHT, 8664, 0, 0, 0, 0
32,2018-08-15 01:44:29pm, STATIC, random_0, false, LEFT, 2552, 0, 0, 0, 0
33,2018-08-15 01:44:33pm, STATIC, random_0, true, RIGHT, 3448, 0, 0, 0, 0
34,2018-08-15 01:44:35pm, STATIC, random_0, false, LEFT, 2648, 1, 0, 0, 1
35,2018-08-15 01:44:38pm, STATIC, random_0, false, LEFT, 2663, 1, 0, 0, 1
36,2018-08-15 01:44:41pm, STATIC, random_0, false, LEFT, 2849, 1, 0, 0, 1
37,2018-08-15 01:44:44pm, STATIC, random_0, false, LEFT, 2711, 1, 1, 1, 1
38,2018-08-15 01:44:46pm, STATIC, random_0, false, LEFT, 2625, 1, 0, 0, 1
39,2018-08-15 01:44:49pm, STATIC, random_0, false, LEFT, 3152, 0, 0, 0, 0
40,2018-08-15 01:44:52pm, STATIC, random_0, true, RIGHT, 2780, 0, 0, 0, 0
41,2018-08-15 01:44:55pm, STATIC, random_0, false, LEFT, 2619, 0, 0, 0, 0
42,2018-08-15 01:44:58pm, STATIC, random_0, true, RIGHT, 2672, 0, 0, 0, 0
43,2018-08-15 01:45:00pm, STATIC, random_0, false, LEFT, 2760, 0, 0, 0, 0
44,2018-08-15 01:45:03pm, STATIC, random_0, true, RIGHT, 2874, 1, 1, 1, 1
45,2018-08-15 01:45:06pm, STATIC, random_0, false, LEFT, 2647, 0, 1, 1, 0
46,2018-08-15 01:45:08pm, STATIC, random_0, false, LEFT, 2456, 1, 0, 0, 1
47,2018-08-15 01:45:11pm, STATIC, random_0, false, LEFT, 2872, 0, 0, 0, 0
48,2018-08-15 01:45:14pm, STATIC, random_0, true, RIGHT, 3256, 0, 0, 0, 0
49,2018-08-15 01:45:17pm, STATIC, random_0, false, LEFT, 2519, 1, 0, 0, 1
50,2018-08-15 01:45:20pm, STATIC, random_0, false, LEFT, 3033, 1, 1, 1, 1
51,2018-08-15 01:45:24pm, STATIC, random_0, false, LEFT, 2607, 0, 0, 0, 0
52,2018-08-15 01:45:26pm, STATIC, random_0, false, LEFT, 3497, 1, 0, 0, 1
53,2018-08-15 01:45:29pm, STATIC, random_0, false, LEFT, 2879, 0, 0, 0, 0
54,2018-08-15 01:45:32pm, STATIC, random_0, false, LEFT, 3017, 0, 1, 1, 0
55,2018-08-15 01:45:35pm, STATIC, random_0, true, RIGHT, 2951, 0, 0, 0, 0
56,2018-08-15 01:45:38pm, STATIC, random_0, false, LEFT, 2944, 0, 0, 0, 0
57,2018-08-15 01:45:41pm, STATIC, random_0, true, RIGHT, 3104, 0, 0, 0, 0
58,2018-08-15 01:45:44pm, STATIC, random_0, false, LEFT, 2928, 1, 0, 0, 1
59,2018-08-15 01:45:47pm, STATIC, random_0, false, LEFT, 2902, 1, 1, 1, 1
60,2018-08-15 01:45:50pm, STATIC, random_0, false, LEFT, 3130, 1, 1, 1, 1
61,2018-08-15 01:45:53pm, STATIC, random_0, false, LEFT, 3319, 1, 0, 0, 1
62,2018-08-15 01:45:56pm, STATIC, random_0, false, LEFT, 2704, 0, 1, 1, 0
63,2018-08-15 01:45:59pm, STATIC, random_0, true, RIGHT, 2913, 1, 0, 1, 0
64,2018-08-15 01:46:02pm, STATIC, random_0, true, RIGHT, 3455, 0, 1, 0, 1
65,2018-08-15 01:46:05pm, STATIC, random_0, false, LEFT, 2992, 1, 0, 0, 1
66,2018-08-15 01:46:08pm, STATIC, random_0, true, RIGHT, 2540, 0, 0, 0, 0
67,2018-08-15 01:46:10pm, STATIC, random_0, false, LEFT, 2551, 0, 1, 1, 0
68,2018-08-15 01:46:14pm, STATIC, random_0, false, LEFT, 3199, 0, 1, 1, 0
69,2018-08-15 01:46:17pm, STATIC, random_0, true, RIGHT, 3400, 1, 0, 1, 0
70,2018-08-15 01:46:20pm, STATIC, random_0, false, LEFT, 2911, 0, 0, 0, 0
71,2018-08-15 01:46:23pm, STATIC, random_0, true, RIGHT, 2987, 1, 0, 1, 0
72,2018-08-15 01:46:27pm, STATIC, random_0, false, LEFT, 4005, 0, 1, 1, 0
73,2018-08-15 01:46:31pm, STATIC, random_0, true, RIGHT, 4304, 0, 0, 0, 0
74,2018-08-15 01:46:35pm, STATIC, random_0, false, LEFT, 3120, 0, 1, 1, 0
75,2018-08-15 01:46:37pm, STATIC, random_0, true, RIGHT, 2800, 0, 0, 0, 0
76,2018-08-15 01:46:41pm, STATIC, random_0, false, LEFT, 4464, 0, 0, 0, 0
77,2018-08-15 01:46:45pm, STATIC, random_0, true, RIGHT, 3240, 0, 0, 0, 0
78,2018-08-15 01:46:48pm, STATIC, random_0, false, LEFT, 2752, 0, 0, 0, 0
79,2018-08-15 01:46:50pm, STATIC, random_0, true, RIGHT, 2975, 0, 0, 0, 0
80,2018-08-15 01:46:54pm, STATIC, random_0, false, LEFT, 3273, 0, 0, 0, 0
81,2018-08-15 01:46:57pm, STATIC, random_0, true, RIGHT, 2751, 0, 0, 0, 0
82,2018-08-15 01:46:59pm, STATIC, random_0, false, LEFT, 2824, 0, 0, 0, 0
83,2018-08-15 01:47:02pm, STATIC, random_0, true, RIGHT, 2984, 1, 0, 1, 0
84,2018-08-15 01:47:05pm, STATIC, random_0, true, RIGHT, 2592, 0, 0, 0, 0
85,2018-08-15 01:47:08pm, STATIC, random_0, false, LEFT, 2657, 1, 0, 0, 1
86,2018-08-15 01:47:11pm, STATIC, random_0, false, LEFT, 3064, 1, 0, 0, 1
87,2018-08-15 01:47:14pm, STATIC, random_0, false, LEFT, 3184, 0, 0, 0, 0
88,2018-08-15 01:47:17pm, STATIC, random_0, true, RIGHT, 2576, 0, 0, 0, 0
89,2018-08-15 01:47:19pm, STATIC, random_0, true, RIGHT, 2631, 1, 0, 1, 0
90,2018-08-15 01:47:22pm, STATIC, random_0, true, RIGHT, 2504, 0, 0, 0, 0
91,2018-08-15 01:47:25pm, STATIC, random_0, false, LEFT, 3112, 0, 0, 0, 0
92,2018-08-15 01:47:28pm, STATIC, random_0, false, LEFT, 2608, 0, 0, 0, 0
93,2018-08-15 01:47:30pm, STATIC, random_0, true, RIGHT, 3241, 0, 0, 0, 0
94,2018-08-15 01:47:34pm, STATIC, random_0, true, RIGHT, 3278, 1, 0, 1, 0
95,2018-08-15 01:47:37pm, STATIC, random_0, true, RIGHT, 2841, 0, 0, 0, 0
96,2018-08-15 01:47:39pm, STATIC, random_0, true, RIGHT, 2520, 0, 0, 0, 0
97,2018-08-15 01:47:42pm, STATIC, random_0, false, LEFT, 2832, 0, 0, 0, 0
98,2018-08-15 01:47:45pm, STATIC, random_0, false, LEFT, 2808, 0, 1, 1, 0
