trial_number, time, schedule_type, schedule_name, is_biased_choice, side_choice, RT, observed_reward, unobserved_reward, biased_reward, unbiased_reward
0,2018-07-29 04:18:51pm, STATIC, random_18, false, LEFT, 10102, 1, 1, 1, 1
1,2018-07-29 04:18:58pm, STATIC, random_18, true, RIGHT, 7801, 0, 0, 0, 0
2,2018-07-29 04:19:02pm, STATIC, random_18, false, LEFT, 3190, 0, 0, 0, 0
3,2018-07-29 04:19:05pm, STATIC, random_18, false, LEFT, 3161, 1, 0, 0, 1
4,2018-07-29 04:19:08pm, STATIC, random_18, false, LEFT, 2912, 0, 0, 0, 0
5,2018-07-29 04:19:11pm, STATIC, random_18, false, LEFT, 3023, 0, 0, 0, 0
6,2018-07-29 04:19:15pm, STATIC, random_18, false, LEFT, 3473, 0, 1, 1, 0
7,2018-07-29 04:19:17pm, STATIC, random_18, false, LEFT, 2808, 0, 0, 0, 0
8,2018-07-29 04:19:20pm, STATIC, random_18, false, LEFT, 2609, 0, 1, 1, 0
9,2018-07-29 04:19:22pm, STATIC, random_18, true, RIGHT, 2752, 0, 0, 0, 0
10,2018-07-29 04:19:28pm, STATIC, random_18, true, RIGHT, 5031, 0, 0, 0, 0
11,2018-07-29 04:19:31pm, STATIC, random_18, true, RIGHT, 3448, 1, 0, 1, 0
12,2018-07-29 04:19:35pm, STATIC, random_18, false, LEFT, 4248, 0, 0, 0, 0
13,2018-07-29 04:19:38pm, STATIC, random_18, false, LEFT, 2569, 1, 1, 1, 1
14,2018-07-29 04:19:41pm, STATIC, random_18, false, LEFT, 3384, 0, 0, 0, 0
15,2018-07-29 04:19:45pm, STATIC, random_18, true, RIGHT, 3320, 1, 0, 1, 0
16,2018-07-29 04:19:47pm, STATIC, random_18, false, LEFT, 2854, 0, 1, 1, 0
17,2018-07-29 04:19:50pm, STATIC, random_18, false, LEFT, 2608, 1, 0, 0, 1
18,2018-07-29 04:19:57pm, STATIC, random_18, true, RIGHT, 6458, 0, 1, 0, 1
19,2018-07-29 04:20:00pm, STATIC, random_18, true, RIGHT, 3744, 0, 0, 0, 0
20,2018-07-29 04:20:03pm, STATIC, random_18, true, RIGHT, 2703, 0, 0, 0, 0
21,2018-07-29 04:20:06pm, STATIC, random_18, true, RIGHT, 2960, 0, 0, 0, 0
22,2018-07-29 04:20:09pm, STATIC, random_18, true, RIGHT, 3000, 0, 0, 0, 0
23,2018-07-29 04:20:12pm, STATIC, random_18, true, RIGHT, 3119, 0, 0, 0, 0
24,2018-07-29 04:20:17pm, STATIC, random_18, false, LEFT, 5153, 1, 0, 0, 1
25,2018-07-29 04:20:21pm, STATIC, random_18, false, LEFT, 3424, 0, 0, 0, 0
26,2018-07-29 04:20:25pm, STATIC, random_18, true, RIGHT, 4559, 0, 0, 0, 0
27,2018-07-29 04:20:28pm, STATIC, random_18, true, RIGHT, 2928, 1, 1, 1, 1
28,2018-07-29 04:20:32pm, STATIC, random_18, true, RIGHT, 3513, 0, 0, 0, 0
29,2018-07-29 04:20:36pm, STATIC, random_18, false, LEFT, 4155, 1, 0, 0, 1
30,2018-07-29 04:20:39pm, STATIC, random_18, false, LEFT, 3157, 0, 0, 0, 0
31,2018-07-29 04:20:42pm, STATIC, random_18, false, LEFT, 3288, 0, 1, 1, 0
32,2018-07-29 04:20:45pm, STATIC, random_18, false, LEFT, 2679, 0, 0, 0, 0
33,2018-07-29 04:20:48pm, STATIC, random_18, true, RIGHT, 3161, 0, 0, 0, 0
34,2018-07-29 04:20:52pm, STATIC, random_18, true, RIGHT, 4008, 0, 1, 0, 1
35,2018-07-29 04:20:55pm, STATIC, random_18, false, LEFT, 2944, 0, 0, 0, 0
36,2018-07-29 04:20:58pm, STATIC, random_18, false, LEFT, 2721, 0, 1, 1, 0
37,2018-07-29 04:21:00pm, STATIC, random_18, false, LEFT, 2927, 1, 0, 0, 1
38,2018-07-29 04:21:05pm, STATIC, random_18, false, LEFT, 3807, 0, 0, 0, 0
39,2018-07-29 04:21:07pm, STATIC, random_18, true, RIGHT, 2730, 0, 0, 0, 0
40,2018-07-29 04:21:10pm, STATIC, random_18, true, RIGHT, 2832, 0, 0, 0, 0
41,2018-07-29 04:21:13pm, STATIC, random_18, false, LEFT, 2936, 0, 0, 0, 0
42,2018-07-29 04:21:16pm, STATIC, random_18, true, RIGHT, 3254, 0, 0, 0, 0
43,2018-07-29 04:21:20pm, STATIC, random_18, false, LEFT, 3673, 0, 0, 0, 0
44,2018-07-29 04:21:26pm, STATIC, random_18, false, LEFT, 5873, 0, 0, 0, 0
45,2018-07-29 04:21:28pm, STATIC, random_18, false, LEFT, 2744, 1, 0, 0, 1
46,2018-07-29 04:21:31pm, STATIC, random_18, true, RIGHT, 2959, 1, 0, 1, 0
47,2018-07-29 04:21:34pm, STATIC, random_18, false, LEFT, 2711, 1, 0, 0, 1
48,2018-07-29 04:21:37pm, STATIC, random_18, true, RIGHT, 2680, 0, 0, 0, 0
49,2018-07-29 04:21:39pm, STATIC, random_18, false, LEFT, 2601, 0, 0, 0, 0
50,2018-07-29 04:21:42pm, STATIC, random_18, true, RIGHT, 2713, 0, 0, 0, 0
51,2018-07-29 04:21:45pm, STATIC, random_18, false, LEFT, 2624, 1, 1, 1, 1
52,2018-07-29 04:21:47pm, STATIC, random_18, true, RIGHT, 2495, 0, 0, 0, 0
53,2018-07-29 04:21:50pm, STATIC, random_18, false, LEFT, 2481, 1, 1, 1, 1
54,2018-07-29 04:21:52pm, STATIC, random_18, true, RIGHT, 2544, 1, 0, 1, 0
55,2018-07-29 04:21:55pm, STATIC, random_18, false, LEFT, 2543, 0, 1, 1, 0
56,2018-07-29 04:21:57pm, STATIC, random_18, true, RIGHT, 2641, 0, 1, 0, 1
57,2018-07-29 04:22:00pm, STATIC, random_18, false, LEFT, 2592, 0, 0, 0, 0
58,2018-07-29 04:22:02pm, STATIC, random_18, true, RIGHT, 2504, 0, 1, 0, 1
59,2018-07-29 04:22:05pm, STATIC, random_18, false, LEFT, 2632, 0, 1, 1, 0
60,2018-07-29 04:22:08pm, STATIC, random_18, false, LEFT, 2894, 0, 0, 0, 0
61,2018-07-29 04:22:11pm, STATIC, random_18, true, RIGHT, 2464, 0, 0, 0, 0
62,2018-07-29 04:22:13pm, STATIC, random_18, false, LEFT, 3000, 1, 0, 0, 1
63,2018-07-29 04:22:16pm, STATIC, random_18, true, RIGHT, 2722, 0, 1, 0, 1
64,2018-07-29 04:22:19pm, STATIC, random_18, false, LEFT, 2480, 0, 1, 1, 0
65,2018-07-29 04:22:21pm, STATIC, random_18, false, LEFT, 2383, 0, 0, 0, 0
66,2018-07-29 04:22:23pm, STATIC, random_18, true, RIGHT, 2376, 0, 0, 0, 0
67,2018-07-29 04:22:26pm, STATIC, random_18, false, LEFT, 2392, 1, 1, 1, 1
68,2018-07-29 04:22:29pm, STATIC, random_18, false, LEFT, 2856, 1, 0, 0, 1
69,2018-07-29 04:22:32pm, STATIC, random_18, false, LEFT, 2991, 0, 0, 0, 0
70,2018-07-29 04:22:35pm, STATIC, random_18, true, RIGHT, 3010, 0, 0, 0, 0
71,2018-07-29 04:22:37pm, STATIC, random_18, false, LEFT, 2495, 0, 0, 0, 0
72,2018-07-29 04:22:40pm, STATIC, random_18, false, LEFT, 2752, 0, 0, 0, 0
73,2018-07-29 04:22:43pm, STATIC, random_18, true, RIGHT, 2647, 1, 0, 1, 0
74,2018-07-29 04:22:45pm, STATIC, random_18, true, RIGHT, 2864, 0, 1, 0, 1
75,2018-07-29 04:22:48pm, STATIC, random_18, true, RIGHT, 2449, 0, 0, 0, 0
76,2018-07-29 04:22:51pm, STATIC, random_18, false, LEFT, 2432, 1, 0, 0, 1
77,2018-07-29 04:22:54pm, STATIC, random_18, false, LEFT, 3472, 0, 0, 0, 0
78,2018-07-29 04:22:56pm, STATIC, random_18, false, LEFT, 2632, 0, 0, 0, 0
79,2018-07-29 04:22:59pm, STATIC, random_18, true, RIGHT, 2360, 0, 0, 0, 0
80,2018-07-29 04:23:01pm, STATIC, random_18, false, LEFT, 2639, 0, 0, 0, 0
81,2018-07-29 04:23:04pm, STATIC, random_18, true, RIGHT, 2392, 0, 0, 0, 0
82,2018-07-29 04:23:06pm, STATIC, random_18, false, LEFT, 2384, 1, 0, 0, 1
83,2018-07-29 04:23:09pm, STATIC, random_18, false, LEFT, 2505, 0, 0, 0, 0
84,2018-07-29 04:23:11pm, STATIC, random_18, true, RIGHT, 2392, 0, 0, 0, 0
85,2018-07-29 04:23:13pm, STATIC, random_18, false, LEFT, 2336, 0, 1, 1, 0
86,2018-07-29 04:23:16pm, STATIC, random_18, true, RIGHT, 2648, 0, 1, 0, 1
87,2018-07-29 04:23:19pm, STATIC, random_18, false, LEFT, 2560, 0, 1, 1, 0
88,2018-07-29 04:23:21pm, STATIC, random_18, false, LEFT, 2816, 1, 0, 0, 1
89,2018-07-29 04:23:24pm, STATIC, random_18, false, LEFT, 2832, 0, 0, 0, 0
90,2018-07-29 04:23:28pm, STATIC, random_18, true, RIGHT, 3209, 1, 0, 1, 0
91,2018-07-29 04:23:32pm, STATIC, random_18, true, RIGHT, 4472, 0, 0, 0, 0
92,2018-07-29 04:23:35pm, STATIC, random_18, false, LEFT, 2639, 0, 0, 0, 0
93,2018-07-29 04:23:37pm, STATIC, random_18, false, LEFT, 2544, 0, 1, 1, 0
94,2018-07-29 04:23:40pm, STATIC, random_18, false, LEFT, 2800, 0, 1, 1, 0
95,2018-07-29 04:23:42pm, STATIC, random_18, true, RIGHT, 2569, 1, 0, 1, 0
96,2018-07-29 04:23:46pm, STATIC, random_18, true, RIGHT, 3256, 0, 0, 0, 0
97,2018-07-29 04:23:48pm, STATIC, random_18, false, LEFT, 2800, 0, 0, 0, 0
98,2018-07-29 04:23:51pm, STATIC, random_18, false, LEFT, 2496, 0, 0, 0, 0
99,2018-07-29 04:23:55pm, STATIC, random_18, false, LEFT, 3775, 0, 0, 0, 0
