[{"RT":6538,"time": "2018-08-15 02:43:13pm", "schedule_type": "STATIC", "schedule_name": "random_18", "is_biased_choice":true,"side_choice": "LEFT", "trial_number":0,"observed_reward":1,"unobserved_reward":1},{"RT":3487,"time": "2018-08-15 02:43:16pm", "schedule_type": "STATIC", "schedule_name": "random_18", "is_biased_choice":true,"side_choice": "LEFT", "trial_number":1,"observed_reward":0,"unobserved_reward":0},{"RT":3113,"time": "2018-08-15 02:43:19pm", "schedule_type": "STATIC", "schedule_name": "random_18", "is_biased_choice":false,"side_choice": "RIGHT", "trial_number":2,"observed_reward":0,"unobserved_reward":0},{"RT":2951,"time": "2018-08-15 02:43:22pm", "schedule_type": "STATIC", "schedule_name": "random_18", "is_biased_choice":true,"side_choice": "LEFT", "trial_number":3,"observed_reward":0,"unobserved_reward":1},{"RT":2848,"time": "2018-08-15 02:43:25pm", "schedule_type": "STATIC", "schedule_name": "random_18", "is_biased_choice":false,"side_choice": "RIGHT", "trial_number":4,"observed_reward":0,"unobserved_reward":0},{"RT":6704,"time": "2018-08-15 02:43:32pm", "schedule_type": "STATIC", "schedule_name": "random_18", "is_biased_choice":true,"side_choice": "LEFT", "trial_number":5,"observed_reward":0,"unobserved_reward":0},{"RT":3472,"time": "2018-08-15 02:43:35pm", "schedule_type": "STATIC", "schedule_name": "random_18", "is_biased_choice":false,"side_choice": "RIGHT", "trial_number":6,"observed_reward":0,"unobserved_reward":1},{"RT":2888,"time": "2018-08-15 02:43:38pm", "schedule_type": "STATIC", "schedule_name": "random_18", "is_biased_choice":true,"side_choice": "LEFT", "trial_number":7,"observed_reward":0,"unobserved_reward":0},{"RT":3560,"time": "2018-08-15 02:43:42pm", "schedule_type": "STATIC", "schedule_name": "random_18", "is_biased_choice":false,"side_choice": "RIGHT", "trial_number":8,"observed_reward":0,"unobserved_reward":1},{"RT":3264,"time": "2018-08-15 02:43:45pm", "schedule_type": "STATIC", "schedule_name": "random_18", "is_biased_choice":false,"side_choice": "RIGHT", "trial_number":9,"observed_reward":0,"unobserved_reward":0},{"RT":3496,"time": "2018-08-15 02:43:48pm", "schedule_type": "STATIC", "schedule_name": "random_18", "is_biased_choice":false,"side_choice": "RIGHT", "trial_number":10,"observed_reward":0,"unobserved_reward":0},{"RT":3032,"time": "2018-08-15 02:43:52pm", "schedule_type": "STATIC", "schedule_name": "random_18", "is_biased_choice":true,"side_choice": "LEFT", "trial_number":11,"observed_reward":1,"unobserved_reward":0},{"RT":2792,"time": "2018-08-15 02:43:54pm", "schedule_type": "STATIC", "schedule_name": "random_18", "is_biased_choice":true,"side_choice": "LEFT", "trial_number":12,"observed_reward":0,"unobserved_reward":0},{"RT":2496,"time": "2018-08-15 02:43:57pm", "schedule_type": "STATIC", "schedule_name": "random_18", "is_biased_choice":true,"side_choice": "LEFT", "trial_number":13,"observed_reward":1,"unobserved_reward":1},{"RT":2632,"time": "2018-08-15 02:43:59pm", "schedule_type": "STATIC", "schedule_name": "random_18", "is_biased_choice":true,"side_choice": "LEFT", "trial_number":14,"observed_reward":0,"unobserved_reward":0},{"RT":2616,"time": "2018-08-15 02:44:02pm", "schedule_type": "STATIC", "schedule_name": "random_18", "is_biased_choice":false,"side_choice": "RIGHT", "trial_number":15,"observed_reward":0,"unobserved_reward":1},{"RT":2456,"time": "2018-08-15 02:44:05pm", "schedule_type": "STATIC", "schedule_name": "random_18", "is_biased_choice":true,"side_choice": "LEFT", "trial_number":16,"observed_reward":1,"unobserved_reward":0},{"RT":2920,"time": "2018-08-15 02:44:07pm", "schedule_type": "STATIC", "schedule_name": "random_18", "is_biased_choice":false,"side_choice": "RIGHT", "trial_number":17,"observed_reward":1,"unobserved_reward":0},{"RT":2576,"time": "2018-08-15 02:44:10pm", "schedule_type": "STATIC", "schedule_name": "random_18", "is_biased_choice":true,"side_choice": "LEFT", "trial_number":18,"observed_reward":0,"unobserved_reward":1},{"RT":3569,"time": "2018-08-15 02:44:14pm", "schedule_type": "STATIC", "schedule_name": "random_18", "is_biased_choice":false,"side_choice": "RIGHT", "trial_number":19,"observed_reward":0,"unobserved_reward":0},{"RT":2847,"time": "2018-08-15 02:44:16pm", "schedule_type": "STATIC", "schedule_name": "random_18", "is_biased_choice":true,"side_choice": "LEFT", "trial_number":20,"observed_reward":0,"unobserved_reward":0},{"RT":3568,"time": "2018-08-15 02:44:20pm", "schedule_type": "STATIC", "schedule_name": "random_18", "is_biased_choice":true,"side_choice": "LEFT", "trial_number":21,"observed_reward":0,"unobserved_reward":0},{"RT":2752,"time": "2018-08-15 02:44:23pm", "schedule_type": "STATIC", "schedule_name": "random_18", "is_biased_choice":false,"side_choice": "RIGHT", "trial_number":22,"observed_reward":0,"unobserved_reward":0},{"RT":2976,"time": "2018-08-15 02:44:26pm", "schedule_type": "STATIC", "schedule_name": "random_18", "is_biased_choice":true,"side_choice": "LEFT", "trial_number":23,"observed_reward":0,"unobserved_reward":0},{"RT":3128,"time": "2018-08-15 02:44:29pm", "schedule_type": "STATIC", "schedule_name": "random_18", "is_biased_choice":true,"side_choice": "LEFT", "trial_number":24,"observed_reward":0,"unobserved_reward":1},{"RT":2759,"time": "2018-08-15 02:44:32pm", "schedule_type": "STATIC", "schedule_name": "random_18", "is_biased_choice":false,"side_choice": "RIGHT", "trial_number":25,"observed_reward":0,"unobserved_reward":0},{"RT":2424,"time": "2018-08-15 02:44:34pm", "schedule_type": "STATIC", "schedule_name": "random_18", "is_biased_choice":false,"side_choice": "RIGHT", "trial_number":26,"observed_reward":0,"unobserved_reward":0},{"RT":2416,"time": "2018-08-15 02:44:36pm", "schedule_type": "STATIC", "schedule_name": "random_18", "is_biased_choice":true,"side_choice": "LEFT", "trial_number":27,"observed_reward":1,"unobserved_reward":1},{"RT":2472,"time": "2018-08-15 02:44:39pm", "schedule_type": "STATIC", "schedule_name": "random_18", "is_biased_choice":true,"side_choice": "LEFT", "trial_number":28,"observed_reward":0,"unobserved_reward":0},{"RT":2465,"time": "2018-08-15 02:44:41pm", "schedule_type": "STATIC", "schedule_name": "random_18", "is_biased_choice":true,"side_choice": "LEFT", "trial_number":29,"observed_reward":0,"unobserved_reward":1},{"RT":3192,"time": "2018-08-15 02:44:45pm", "schedule_type": "STATIC", "schedule_name": "random_18", "is_biased_choice":false,"side_choice": "RIGHT", "trial_number":30,"observed_reward":0,"unobserved_reward":0},{"RT":2480,"time": "2018-08-15 02:44:47pm", "schedule_type": "STATIC", "schedule_name": "random_18", "is_biased_choice":true,"side_choice": "LEFT", "trial_number":31,"observed_reward":1,"unobserved_reward":0},{"RT":2776,"time": "2018-08-15 02:44:50pm", "schedule_type": "STATIC", "schedule_name": "random_18", "is_biased_choice":false,"side_choice": "RIGHT", "trial_number":32,"observed_reward":0,"unobserved_reward":0},{"RT":2383,"time": "2018-08-15 02:44:52pm", "schedule_type": "STATIC", "schedule_name": "random_18", "is_biased_choice":true,"side_choice": "LEFT", "trial_number":33,"observed_reward":0,"unobserved_reward":0},{"RT":2344,"time": "2018-08-15 02:44:55pm", "schedule_type": "STATIC", "schedule_name": "random_18", "is_biased_choice":false,"side_choice": "RIGHT", "trial_number":34,"observed_reward":1,"unobserved_reward":0},{"RT":2648,"time": "2018-08-15 02:44:57pm", "schedule_type": "STATIC", "schedule_name": "random_18", "is_biased_choice":false,"side_choice": "RIGHT", "trial_number":35,"observed_reward":0,"unobserved_reward":0},{"RT":2584,"time": "2018-08-15 02:45:00pm", "schedule_type": "STATIC", "schedule_name": "random_18", "is_biased_choice":true,"side_choice": "LEFT", "trial_number":36,"observed_reward":1,"unobserved_reward":0},{"RT":2816,"time": "2018-08-15 02:45:03pm", "schedule_type": "STATIC", "schedule_name": "random_18", "is_biased_choice":true,"side_choice": "LEFT", "trial_number":37,"observed_reward":0,"unobserved_reward":1},{"RT":2729,"time": "2018-08-15 02:45:05pm", "schedule_type": "STATIC", "schedule_name": "random_18", "is_biased_choice":true,"side_choice": "LEFT", "trial_number":38,"observed_reward":0,"unobserved_reward":0},{"RT":2584,"time": "2018-08-15 02:45:08pm", "schedule_type": "STATIC", "schedule_name": "random_18", "is_biased_choice":false,"side_choice": "RIGHT", "trial_number":39,"observed_reward":0,"unobserved_reward":0},{"RT":2415,"time": "2018-08-15 02:45:10pm", "schedule_type": "STATIC", "schedule_name": "random_18", "is_biased_choice":true,"side_choice": "LEFT", "trial_number":40,"observed_reward":0,"unobserved_reward":0},{"RT":2457,"time": "2018-08-15 02:45:13pm", "schedule_type": "STATIC", "schedule_name": "random_18", "is_biased_choice":false,"side_choice": "RIGHT", "trial_number":41,"observed_reward":0,"unobserved_reward":0},{"RT":3159,"time": "2018-08-15 02:45:16pm", "schedule_type": "STATIC", "schedule_name": "random_18", "is_biased_choice":true,"side_choice": "LEFT", "trial_number":42,"observed_reward":0,"unobserved_reward":0},{"RT":3424,"time": "2018-08-15 02:45:19pm", "schedule_type": "STATIC", "schedule_name": "random_18", "is_biased_choice":false,"side_choice": "RIGHT", "trial_number":43,"observed_reward":0,"unobserved_reward":0},{"RT":2728,"time": "2018-08-15 02:45:22pm", "schedule_type": "STATIC", "schedule_name": "random_18", "is_biased_choice":true,"side_choice": "LEFT", "trial_number":44,"observed_reward":0,"unobserved_reward":0},{"RT":3064,"time": "2018-08-15 02:45:25pm", "schedule_type": "STATIC", "schedule_name": "random_18", "is_biased_choice":false,"side_choice": "RIGHT", "trial_number":45,"observed_reward":1,"unobserved_reward":0},{"RT":2969,"time": "2018-08-15 02:45:28pm", "schedule_type": "STATIC", "schedule_name": "random_18", "is_biased_choice":false,"side_choice": "RIGHT", "trial_number":46,"observed_reward":0,"unobserved_reward":1},{"RT":3103,"time": "2018-08-15 02:45:32pm", "schedule_type": "STATIC", "schedule_name": "random_18", "is_biased_choice":true,"side_choice": "LEFT", "trial_number":47,"observed_reward":0,"unobserved_reward":1},{"RT":2568,"time": "2018-08-15 02:45:34pm", "schedule_type": "STATIC", "schedule_name": "random_18", "is_biased_choice":false,"side_choice": "RIGHT", "trial_number":48,"observed_reward":0,"unobserved_reward":0},{"RT":3200,"time": "2018-08-15 02:45:37pm", "schedule_type": "STATIC", "schedule_name": "random_18", "is_biased_choice":true,"side_choice": "LEFT", "trial_number":49,"observed_reward":0,"unobserved_reward":0},{"RT":2368,"time": "2018-08-15 02:45:39pm", "schedule_type": "STATIC", "schedule_name": "random_18", "is_biased_choice":false,"side_choice": "RIGHT", "trial_number":50,"observed_reward":0,"unobserved_reward":0},{"RT":2496,"time": "2018-08-15 02:45:42pm", "schedule_type": "STATIC", "schedule_name": "random_18", "is_biased_choice":true,"side_choice": "LEFT", "trial_number":51,"observed_reward":1,"unobserved_reward":1},{"RT":3064,"time": "2018-08-15 02:45:46pm", "schedule_type": "STATIC", "schedule_name": "random_18", "is_biased_choice":true,"side_choice": "LEFT", "trial_number":52,"observed_reward":0,"unobserved_reward":0},{"RT":2424,"time": "2018-08-15 02:45:47pm", "schedule_type": "STATIC", "schedule_name": "random_18", "is_biased_choice":false,"side_choice": "RIGHT", "trial_number":53,"observed_reward":1,"unobserved_reward":1},{"RT":2920,"time": "2018-08-15 02:45:50pm", "schedule_type": "STATIC", "schedule_name": "random_18", "is_biased_choice":true,"side_choice": "LEFT", "trial_number":54,"observed_reward":1,"unobserved_reward":0},{"RT":2656,"time": "2018-08-15 02:45:53pm", "schedule_type": "STATIC", "schedule_name": "random_18", "is_biased_choice":false,"side_choice": "RIGHT", "trial_number":55,"observed_reward":0,"unobserved_reward":1},{"RT":2648,"time": "2018-08-15 02:45:56pm", "schedule_type": "STATIC", "schedule_name": "random_18", "is_biased_choice":true,"side_choice": "LEFT", "trial_number":56,"observed_reward":0,"unobserved_reward":1},{"RT":2504,"time": "2018-08-15 02:45:58pm", "schedule_type": "STATIC", "schedule_name": "random_18", "is_biased_choice":false,"side_choice": "RIGHT", "trial_number":57,"observed_reward":0,"unobserved_reward":0},{"RT":2631,"time": "2018-08-15 02:46:01pm", "schedule_type": "STATIC", "schedule_name": "random_18", "is_biased_choice":true,"side_choice": "LEFT", "trial_number":58,"observed_reward":0,"unobserved_reward":1},{"RT":2768,"time": "2018-08-15 02:46:03pm", "schedule_type": "STATIC", "schedule_name": "random_18", "is_biased_choice":false,"side_choice": "RIGHT", "trial_number":59,"observed_reward":0,"unobserved_reward":1},{"RT":3849,"time": "2018-08-15 02:46:08pm", "schedule_type": "STATIC", "schedule_name": "random_18", "is_biased_choice":true,"side_choice": "LEFT", "trial_number":60,"observed_reward":0,"unobserved_reward":0},{"RT":4240,"time": "2018-08-15 02:46:12pm", "schedule_type": "STATIC", "schedule_name": "random_18", "is_biased_choice":false,"side_choice": "RIGHT", "trial_number":61,"observed_reward":0,"unobserved_reward":0},{"RT":3256,"time": "2018-08-15 02:46:15pm", "schedule_type": "STATIC", "schedule_name": "random_18", "is_biased_choice":true,"side_choice": "LEFT", "trial_number":62,"observed_reward":0,"unobserved_reward":1},{"RT":3591,"time": "2018-08-15 02:46:19pm", "schedule_type": "STATIC", "schedule_name": "random_18", "is_biased_choice":false,"side_choice": "RIGHT", "trial_number":63,"observed_reward":1,"unobserved_reward":0},{"RT":2752,"time": "2018-08-15 02:46:21pm", "schedule_type": "STATIC", "schedule_name": "random_18", "is_biased_choice":true,"side_choice": "LEFT", "trial_number":64,"observed_reward":1,"unobserved_reward":0},{"RT":2697,"time": "2018-08-15 02:46:24pm", "schedule_type": "STATIC", "schedule_name": "random_18", "is_biased_choice":true,"side_choice": "LEFT", "trial_number":65,"observed_reward":0,"unobserved_reward":0},{"RT":2295,"time": "2018-08-15 02:46:26pm", "schedule_type": "STATIC", "schedule_name": "random_18", "is_biased_choice":false,"side_choice": "RIGHT", "trial_number":66,"observed_reward":0,"unobserved_reward":0},{"RT":4112,"time": "2018-08-15 02:46:31pm", "schedule_type": "STATIC", "schedule_name": "random_18", "is_biased_choice":true,"side_choice": "LEFT", "trial_number":67,"observed_reward":1,"unobserved_reward":1},{"RT":2600,"time": "2018-08-15 02:46:33pm", "schedule_type": "STATIC", "schedule_name": "random_18", "is_biased_choice":true,"side_choice": "LEFT", "trial_number":68,"observed_reward":0,"unobserved_reward":1},{"RT":2440,"time": "2018-08-15 02:46:35pm", "schedule_type": "STATIC", "schedule_name": "random_18", "is_biased_choice":true,"side_choice": "LEFT", "trial_number":69,"observed_reward":0,"unobserved_reward":0},{"RT":3465,"time": "2018-08-15 02:46:39pm", "schedule_type": "STATIC", "schedule_name": "random_18", "is_biased_choice":false,"side_choice": "RIGHT", "trial_number":70,"observed_reward":0,"unobserved_reward":0},{"RT":2887,"time": "2018-08-15 02:46:42pm", "schedule_type": "STATIC", "schedule_name": "random_18", "is_biased_choice":true,"side_choice": "LEFT", "trial_number":71,"observed_reward":0,"unobserved_reward":0},{"RT":2528,"time": "2018-08-15 02:46:44pm", "schedule_type": "STATIC", "schedule_name": "random_18", "is_biased_choice":false,"side_choice": "RIGHT", "trial_number":72,"observed_reward":0,"unobserved_reward":0},{"RT":2592,"time": "2018-08-15 02:46:47pm", "schedule_type": "STATIC", "schedule_name": "random_18", "is_biased_choice":true,"side_choice": "LEFT", "trial_number":73,"observed_reward":1,"unobserved_reward":0},{"RT":2600,"time": "2018-08-15 02:46:49pm", "schedule_type": "STATIC", "schedule_name": "random_18", "is_biased_choice":true,"side_choice": "LEFT", "trial_number":74,"observed_reward":0,"unobserved_reward":1},{"RT":2728,"time": "2018-08-15 02:46:52pm", "schedule_type": "STATIC", "schedule_name": "random_18", "is_biased_choice":false,"side_choice": "RIGHT", "trial_number":75,"observed_reward":0,"unobserved_reward":0},{"RT":3208,"time": "2018-08-15 02:46:56pm", "schedule_type": "STATIC", "schedule_name": "random_18", "is_biased_choice":true,"side_choice": "LEFT", "trial_number":76,"observed_reward":0,"unobserved_reward":1},{"RT":2480,"time": "2018-08-15 02:46:58pm", "schedule_type": "STATIC", "schedule_name": "random_18", "is_biased_choice":true,"side_choice": "LEFT", "trial_number":77,"observed_reward":0,"unobserved_reward":0},{"RT":2904,"time": "2018-08-15 02:47:01pm", "schedule_type": "STATIC", "schedule_name": "random_18", "is_biased_choice":false,"side_choice": "RIGHT", "trial_number":78,"observed_reward":0,"unobserved_reward":0},{"RT":2408,"time": "2018-08-15 02:47:03pm", "schedule_type": "STATIC", "schedule_name": "random_18", "is_biased_choice":true,"side_choice": "LEFT", "trial_number":79,"observed_reward":0,"unobserved_reward":0},{"RT":2343,"time": "2018-08-15 02:47:05pm", "schedule_type": "STATIC", "schedule_name": "random_18", "is_biased_choice":false,"side_choice": "RIGHT", "trial_number":80,"observed_reward":0,"unobserved_reward":0},{"RT":2864,"time": "2018-08-15 02:47:08pm", "schedule_type": "STATIC", "schedule_name": "random_18", "is_biased_choice":true,"side_choice": "LEFT", "trial_number":81,"observed_reward":0,"unobserved_reward":0},{"RT":2424,"time": "2018-08-15 02:47:11pm", "schedule_type": "STATIC", "schedule_name": "random_18", "is_biased_choice":false,"side_choice": "RIGHT", "trial_number":82,"observed_reward":1,"unobserved_reward":0},{"RT":2944,"time": "2018-08-15 02:47:14pm", "schedule_type": "STATIC", "schedule_name": "random_18", "is_biased_choice":false,"side_choice": "RIGHT", "trial_number":83,"observed_reward":0,"unobserved_reward":0},{"RT":2465,"time": "2018-08-15 02:47:16pm", "schedule_type": "STATIC", "schedule_name": "random_18", "is_biased_choice":true,"side_choice": "LEFT", "trial_number":84,"observed_reward":0,"unobserved_reward":0},{"RT":2656,"time": "2018-08-15 02:47:19pm", "schedule_type": "STATIC", "schedule_name": "random_18", "is_biased_choice":true,"side_choice": "LEFT", "trial_number":85,"observed_reward":1,"unobserved_reward":0},{"RT":3232,"time": "2018-08-15 02:47:22pm", "schedule_type": "STATIC", "schedule_name": "random_18", "is_biased_choice":false,"side_choice": "RIGHT", "trial_number":86,"observed_reward":1,"unobserved_reward":0},{"RT":4015,"time": "2018-08-15 02:47:26pm", "schedule_type": "STATIC", "schedule_name": "random_18", "is_biased_choice":true,"side_choice": "LEFT", "trial_number":87,"observed_reward":1,"unobserved_reward":0},{"RT":2592,"time": "2018-08-15 02:47:29pm", "schedule_type": "STATIC", "schedule_name": "random_18", "is_biased_choice":false,"side_choice": "RIGHT", "trial_number":88,"observed_reward":1,"unobserved_reward":0},{"RT":2425,"time": "2018-08-15 02:47:31pm", "schedule_type": "STATIC", "schedule_name": "random_18", "is_biased_choice":true,"side_choice": "LEFT", "trial_number":89,"observed_reward":0,"unobserved_reward":0},{"RT":2375,"time": "2018-08-15 02:47:33pm", "schedule_type": "STATIC", "schedule_name": "random_18", "is_biased_choice":false,"side_choice": "RIGHT", "trial_number":90,"observed_reward":0,"unobserved_reward":1},{"RT":2440,"time": "2018-08-15 02:47:36pm", "schedule_type": "STATIC", "schedule_name": "random_18", "is_biased_choice":true,"side_choice": "LEFT", "trial_number":91,"observed_reward":0,"unobserved_reward":0},{"RT":2265,"time": "2018-08-15 02:47:38pm", "schedule_type": "STATIC", "schedule_name": "random_18", "is_biased_choice":true,"side_choice": "LEFT", "trial_number":92,"observed_reward":0,"unobserved_reward":0},{"RT":2144,"time": "2018-08-15 02:47:40pm", "schedule_type": "STATIC", "schedule_name": "random_18", "is_biased_choice":true,"side_choice": "LEFT", "trial_number":93,"observed_reward":1,"unobserved_reward":0},{"RT":2663,"time": "2018-08-15 02:47:43pm", "schedule_type": "STATIC", "schedule_name": "random_18", "is_biased_choice":true,"side_choice": "LEFT", "trial_number":94,"observed_reward":1,"unobserved_reward":0},{"RT":2393,"time": "2018-08-15 02:47:45pm", "schedule_type": "STATIC", "schedule_name": "random_18", "is_biased_choice":false,"side_choice": "RIGHT", "trial_number":95,"observed_reward":0,"unobserved_reward":1},{"RT":2375,"time": "2018-08-15 02:47:48pm", "schedule_type": "STATIC", "schedule_name": "random_18", "is_biased_choice":true,"side_choice": "LEFT", "trial_number":96,"observed_reward":0,"unobserved_reward":0},{"RT":2912,"time": "2018-08-15 02:47:51pm", "schedule_type": "STATIC", "schedule_name": "random_18", "is_biased_choice":false,"side_choice": "RIGHT", "trial_number":97,"observed_reward":0,"unobserved_reward":0},{"RT":2544,"time": "2018-08-15 02:47:53pm", "schedule_type": "STATIC", "schedule_name": "random_18", "is_biased_choice":false,"side_choice": "RIGHT", "trial_number":98,"observed_reward":0,"unobserved_reward":0},{"RT":2528,"time": "2018-08-15 02:47:56pm", "schedule_type": "STATIC", "schedule_name": "random_18", "is_biased_choice":true,"side_choice": "LEFT", "trial_number":99,"observed_reward":0,"unobserved_reward":0},