[{"RT":3965,"time": "2018-08-15 05:28:25pm", "schedule_type": "STATIC", "schedule_name": "random_18", "is_biased_choice":false,"side_choice": "RIGHT", "trial_number":0,"observed_reward":1,"unobserved_reward":1},{"RT":3615,"time": "2018-08-15 05:28:29pm", "schedule_type": "STATIC", "schedule_name": "random_18", "is_biased_choice":false,"side_choice": "RIGHT", "trial_number":1,"observed_reward":0,"unobserved_reward":0},{"RT":3376,"time": "2018-08-15 05:28:32pm", "schedule_type": "STATIC", "schedule_name": "random_18", "is_biased_choice":true,"side_choice": "LEFT", "trial_number":2,"observed_reward":0,"unobserved_reward":0},{"RT":2624,"time": "2018-08-15 05:28:35pm", "schedule_type": "STATIC", "schedule_name": "random_18", "is_biased_choice":false,"side_choice": "RIGHT", "trial_number":3,"observed_reward":1,"unobserved_reward":0},{"RT":2577,"time": "2018-08-15 05:28:37pm", "schedule_type": "STATIC", "schedule_name": "random_18", "is_biased_choice":false,"side_choice": "RIGHT", "trial_number":4,"observed_reward":0,"unobserved_reward":0},{"RT":2799,"time": "2018-08-15 05:28:40pm", "schedule_type": "STATIC", "schedule_name": "random_18", "is_biased_choice":true,"side_choice": "LEFT", "trial_number":5,"observed_reward":0,"unobserved_reward":0},{"RT":2928,"time": "2018-08-15 05:28:43pm", "schedule_type": "STATIC", "schedule_name": "random_18", "is_biased_choice":true,"side_choice": "LEFT", "trial_number":6,"observed_reward":1,"unobserved_reward":0},{"RT":2520,"time": "2018-08-15 05:28:46pm", "schedule_type": "STATIC", "schedule_name": "random_18", "is_biased_choice":false,"side_choice": "RIGHT", "trial_number":7,"observed_reward":0,"unobserved_reward":0},{"RT":2633,"time": "2018-08-15 05:28:48pm", "schedule_type": "STATIC", "schedule_name": "random_18", "is_biased_choice":true,"side_choice": "LEFT", "trial_number":8,"observed_reward":1,"unobserved_reward":0},{"RT":2424,"time": "2018-08-15 05:28:51pm", "schedule_type": "STATIC", "schedule_name": "random_18", "is_biased_choice":true,"side_choice": "LEFT", "trial_number":9,"observed_reward":0,"unobserved_reward":0},{"RT":2368,"time": "2018-08-15 05:28:53pm", "schedule_type": "STATIC", "schedule_name": "random_18", "is_biased_choice":false,"side_choice": "RIGHT", "trial_number":10,"observed_reward":0,"unobserved_reward":0},{"RT":2240,"time": "2018-08-15 05:28:55pm", "schedule_type": "STATIC", "schedule_name": "random_18", "is_biased_choice":false,"side_choice": "RIGHT", "trial_number":11,"observed_reward":0,"unobserved_reward":1},{"RT":2223,"time": "2018-08-15 05:28:58pm", "schedule_type": "STATIC", "schedule_name": "random_18", "is_biased_choice":false,"side_choice": "RIGHT", "trial_number":12,"observed_reward":0,"unobserved_reward":0},{"RT":2240,"time": "2018-08-15 05:29:00pm", "schedule_type": "STATIC", "schedule_name": "random_18", "is_biased_choice":false,"side_choice": "RIGHT", "trial_number":13,"observed_reward":1,"unobserved_reward":1},{"RT":2312,"time": "2018-08-15 05:29:02pm", "schedule_type": "STATIC", "schedule_name": "random_18", "is_biased_choice":false,"side_choice": "RIGHT", "trial_number":14,"observed_reward":0,"unobserved_reward":0},{"RT":2142,"time": "2018-08-15 05:29:04pm", "schedule_type": "STATIC", "schedule_name": "random_18", "is_biased_choice":false,"side_choice": "RIGHT", "trial_number":15,"observed_reward":0,"unobserved_reward":1},{"RT":2608,"time": "2018-08-15 05:29:07pm", "schedule_type": "STATIC", "schedule_name": "random_18", "is_biased_choice":false,"side_choice": "RIGHT", "trial_number":16,"observed_reward":0,"unobserved_reward":1},{"RT":2385,"time": "2018-08-15 05:29:09pm", "schedule_type": "STATIC", "schedule_name": "random_18", "is_biased_choice":false,"side_choice": "RIGHT", "trial_number":17,"observed_reward":1,"unobserved_reward":0},{"RT":2287,"time": "2018-08-15 05:29:11pm", "schedule_type": "STATIC", "schedule_name": "random_18", "is_biased_choice":true,"side_choice": "LEFT", "trial_number":18,"observed_reward":0,"unobserved_reward":1},{"RT":2264,"time": "2018-08-15 05:29:14pm", "schedule_type": "STATIC", "schedule_name": "random_18", "is_biased_choice":true,"side_choice": "LEFT", "trial_number":19,"observed_reward":0,"unobserved_reward":0},{"RT":2280,"time": "2018-08-15 05:29:16pm", "schedule_type": "STATIC", "schedule_name": "random_18", "is_biased_choice":true,"side_choice": "LEFT", "trial_number":20,"observed_reward":0,"unobserved_reward":0},{"RT":2304,"time": "2018-08-15 05:29:18pm", "schedule_type": "STATIC", "schedule_name": "random_18", "is_biased_choice":true,"side_choice": "LEFT", "trial_number":21,"observed_reward":0,"unobserved_reward":0},{"RT":2296,"time": "2018-08-15 05:29:21pm", "schedule_type": "STATIC", "schedule_name": "random_18", "is_biased_choice":false,"side_choice": "RIGHT", "trial_number":22,"observed_reward":0,"unobserved_reward":0},{"RT":2217,"time": "2018-08-15 05:29:23pm", "schedule_type": "STATIC", "schedule_name": "random_18", "is_biased_choice":false,"side_choice": "RIGHT", "trial_number":23,"observed_reward":0,"unobserved_reward":0},{"RT":28376,"time": "2018-08-15 05:29:51pm", "schedule_type": "STATIC", "schedule_name": "random_18", "is_biased_choice":false,"side_choice": "RIGHT", "trial_number":24,"observed_reward":1,"unobserved_reward":0},{"RT":2336,"time": "2018-08-15 05:29:54pm", "schedule_type": "STATIC", "schedule_name": "random_18", "is_biased_choice":true,"side_choice": "LEFT", "trial_number":25,"observed_reward":0,"unobserved_reward":0},{"RT":2463,"time": "2018-08-15 05:29:56pm", "schedule_type": "STATIC", "schedule_name": "random_18", "is_biased_choice":false,"side_choice": "RIGHT", "trial_number":26,"observed_reward":0,"unobserved_reward":0},{"RT":2440,"time": "2018-08-15 05:29:58pm", "schedule_type": "STATIC", "schedule_name": "random_18", "is_biased_choice":true,"side_choice": "LEFT", "trial_number":27,"observed_reward":1,"unobserved_reward":1},{"RT":2248,"time": "2018-08-15 05:30:01pm", "schedule_type": "STATIC", "schedule_name": "random_18", "is_biased_choice":true,"side_choice": "LEFT", "trial_number":28,"observed_reward":0,"unobserved_reward":0},{"RT":2280,"time": "2018-08-15 05:30:03pm", "schedule_type": "STATIC", "schedule_name": "random_18", "is_biased_choice":true,"side_choice": "LEFT", "trial_number":29,"observed_reward":0,"unobserved_reward":1},{"RT":2296,"time": "2018-08-15 05:30:05pm", "schedule_type": "STATIC", "schedule_name": "random_18", "is_biased_choice":true,"side_choice": "LEFT", "trial_number":30,"observed_reward":0,"unobserved_reward":0},{"RT":2239,"time": "2018-08-15 05:30:08pm", "schedule_type": "STATIC", "schedule_name": "random_18", "is_biased_choice":true,"side_choice": "LEFT", "trial_number":31,"observed_reward":1,"unobserved_reward":0},{"RT":2265,"time": "2018-08-15 05:30:10pm", "schedule_type": "STATIC", "schedule_name": "random_18", "is_biased_choice":false,"side_choice": "RIGHT", "trial_number":32,"observed_reward":0,"unobserved_reward":0},{"RT":56570,"time": "2018-08-15 05:31:06pm", "schedule_type": "STATIC", "schedule_name": "random_18", "is_biased_choice":false,"side_choice": "RIGHT", "trial_number":33,"observed_reward":0,"unobserved_reward":0},{"RT":2226,"time": "2018-08-15 05:31:09pm", "schedule_type": "STATIC", "schedule_name": "random_18", "is_biased_choice":true,"side_choice": "LEFT", "trial_number":34,"observed_reward":0,"unobserved_reward":1},{"RT":2207,"time": "2018-08-15 05:31:11pm", "schedule_type": "STATIC", "schedule_name": "random_18", "is_biased_choice":true,"side_choice": "LEFT", "trial_number":35,"observed_reward":0,"unobserved_reward":0},{"RT":2247,"time": "2018-08-15 05:31:13pm", "schedule_type": "STATIC", "schedule_name": "random_18", "is_biased_choice":true,"side_choice": "LEFT", "trial_number":36,"observed_reward":1,"unobserved_reward":0},{"RT":6761,"time": "2018-08-15 05:31:20pm", "schedule_type": "STATIC", "schedule_name": "random_18", "is_biased_choice":false,"side_choice": "RIGHT", "trial_number":37,"observed_reward":1,"unobserved_reward":0},{"RT":2248,"time": "2018-08-15 05:31:22pm", "schedule_type": "STATIC", "schedule_name": "random_18", "is_biased_choice":true,"side_choice": "LEFT", "trial_number":38,"observed_reward":0,"unobserved_reward":0},{"RT":2200,"time": "2018-08-15 05:31:24pm", "schedule_type": "STATIC", "schedule_name": "random_18", "is_biased_choice":true,"side_choice": "LEFT", "trial_number":39,"observed_reward":0,"unobserved_reward":0},{"RT":2248,"time": "2018-08-15 05:31:26pm", "schedule_type": "STATIC", "schedule_name": "random_18", "is_biased_choice":true,"side_choice": "LEFT", "trial_number":40,"observed_reward":0,"unobserved_reward":0},{"RT":2263,"time": "2018-08-15 05:31:29pm", "schedule_type": "STATIC", "schedule_name": "random_18", "is_biased_choice":true,"side_choice": "LEFT", "trial_number":41,"observed_reward":0,"unobserved_reward":0},{"RT":2224,"time": "2018-08-15 05:31:31pm", "schedule_type": "STATIC", "schedule_name": "random_18", "is_biased_choice":true,"side_choice": "LEFT", "trial_number":42,"observed_reward":0,"unobserved_reward":0},{"RT":2128,"time": "2018-08-15 05:31:33pm", "schedule_type": "STATIC", "schedule_name": "random_18", "is_biased_choice":true,"side_choice": "LEFT", "trial_number":43,"observed_reward":0,"unobserved_reward":0},{"RT":2752,"time": "2018-08-15 05:31:36pm", "schedule_type": "STATIC", "schedule_name": "random_18", "is_biased_choice":true,"side_choice": "LEFT", "trial_number":44,"observed_reward":0,"unobserved_reward":0},{"RT":2673,"time": "2018-08-15 05:31:39pm", "schedule_type": "STATIC", "schedule_name": "random_18", "is_biased_choice":true,"side_choice": "LEFT", "trial_number":45,"observed_reward":0,"unobserved_reward":1},{"RT":2176,"time": "2018-08-15 05:31:41pm", "schedule_type": "STATIC", "schedule_name": "random_18", "is_biased_choice":true,"side_choice": "LEFT", "trial_number":46,"observed_reward":1,"unobserved_reward":0},{"RT":2248,"time": "2018-08-15 05:31:43pm", "schedule_type": "STATIC", "schedule_name": "random_18", "is_biased_choice":false,"side_choice": "RIGHT", "trial_number":47,"observed_reward":1,"unobserved_reward":0},{"RT":2288,"time": "2018-08-15 05:31:45pm", "schedule_type": "STATIC", "schedule_name": "random_18", "is_biased_choice":false,"side_choice": "RIGHT", "trial_number":48,"observed_reward":0,"unobserved_reward":0},{"RT":2184,"time": "2018-08-15 05:31:47pm", "schedule_type": "STATIC", "schedule_name": "random_18", "is_biased_choice":true,"side_choice": "LEFT", "trial_number":49,"observed_reward":0,"unobserved_reward":0},{"RT":80843,"time": "2018-08-15 05:33:08pm", "schedule_type": "STATIC", "schedule_name": "random_18", "is_biased_choice":true,"side_choice": "LEFT", "trial_number":50,"observed_reward":0,"unobserved_reward":0},{"RT":2353,"time": "2018-08-15 05:33:11pm", "schedule_type": "STATIC", "schedule_name": "random_18", "is_biased_choice":true,"side_choice": "LEFT", "trial_number":51,"observed_reward":1,"unobserved_reward":1},{"RT":2192,"time": "2018-08-15 05:33:13pm", "schedule_type": "STATIC", "schedule_name": "random_18", "is_biased_choice":true,"side_choice": "LEFT", "trial_number":52,"observed_reward":0,"unobserved_reward":0},{"RT":6471,"time": "2018-08-15 05:33:19pm", "schedule_type": "STATIC", "schedule_name": "random_18", "is_biased_choice":false,"side_choice": "RIGHT", "trial_number":53,"observed_reward":1,"unobserved_reward":1},{"RT":3688,"time": "2018-08-15 05:33:23pm", "schedule_type": "STATIC", "schedule_name": "random_18", "is_biased_choice":false,"side_choice": "RIGHT", "trial_number":54,"observed_reward":0,"unobserved_reward":1},{"RT":2241,"time": "2018-08-15 05:33:25pm", "schedule_type": "STATIC", "schedule_name": "random_18", "is_biased_choice":true,"side_choice": "LEFT", "trial_number":55,"observed_reward":1,"unobserved_reward":0},{"RT":2095,"time": "2018-08-15 05:33:27pm", "schedule_type": "STATIC", "schedule_name": "random_18", "is_biased_choice":true,"side_choice": "LEFT", "trial_number":56,"observed_reward":0,"unobserved_reward":1},{"RT":6153,"time": "2018-08-15 05:33:34pm", "schedule_type": "STATIC", "schedule_name": "random_18", "is_biased_choice":false,"side_choice": "RIGHT", "trial_number":57,"observed_reward":0,"unobserved_reward":0},{"RT":2407,"time": "2018-08-15 05:33:36pm", "schedule_type": "STATIC", "schedule_name": "random_18", "is_biased_choice":true,"side_choice": "LEFT", "trial_number":58,"observed_reward":0,"unobserved_reward":1},{"RT":2288,"time": "2018-08-15 05:33:38pm", "schedule_type": "STATIC", "schedule_name": "random_18", "is_biased_choice":true,"side_choice": "LEFT", "trial_number":59,"observed_reward":1,"unobserved_reward":0},{"RT":9008,"time": "2018-08-15 05:33:47pm", "schedule_type": "STATIC", "schedule_name": "random_18", "is_biased_choice":true,"side_choice": "LEFT", "trial_number":60,"observed_reward":0,"unobserved_reward":0},{"RT":2224,"time": "2018-08-15 05:33:49pm", "schedule_type": "STATIC", "schedule_name": "random_18", "is_biased_choice":true,"side_choice": "LEFT", "trial_number":61,"observed_reward":0,"unobserved_reward":0},{"RT":2440,"time": "2018-08-15 05:33:52pm", "schedule_type": "STATIC", "schedule_name": "random_18", "is_biased_choice":true,"side_choice": "LEFT", "trial_number":62,"observed_reward":0,"unobserved_reward":1},{"RT":2216,"time": "2018-08-15 05:33:54pm", "schedule_type": "STATIC", "schedule_name": "random_18", "is_biased_choice":false,"side_choice": "RIGHT", "trial_number":63,"observed_reward":1,"unobserved_reward":0},{"RT":2440,"time": "2018-08-15 05:33:57pm", "schedule_type": "STATIC", "schedule_name": "random_18", "is_biased_choice":false,"side_choice": "RIGHT", "trial_number":64,"observed_reward":0,"unobserved_reward":1},{"RT":2192,"time": "2018-08-15 05:33:59pm", "schedule_type": "STATIC", "schedule_name": "random_18", "is_biased_choice":true,"side_choice": "LEFT", "trial_number":65,"observed_reward":0,"unobserved_reward":0},{"RT":2344,"time": "2018-08-15 05:34:01pm", "schedule_type": "STATIC", "schedule_name": "random_18", "is_biased_choice":false,"side_choice": "RIGHT", "trial_number":66,"observed_reward":0,"unobserved_reward":0},{"RT":2192,"time": "2018-08-15 05:34:03pm", "schedule_type": "STATIC", "schedule_name": "random_18", "is_biased_choice":false,"side_choice": "RIGHT", "trial_number":67,"observed_reward":1,"unobserved_reward":1},{"RT":2296,"time": "2018-08-15 05:34:06pm", "schedule_type": "STATIC", "schedule_name": "random_18", "is_biased_choice":false,"side_choice": "RIGHT", "trial_number":68,"observed_reward":1,"unobserved_reward":0},{"RT":2163,"time": "2018-08-15 05:34:08pm", "schedule_type": "STATIC", "schedule_name": "random_18", "is_biased_choice":false,"side_choice": "RIGHT", "trial_number":69,"observed_reward":0,"unobserved_reward":0},{"RT":85746,"time": "2018-08-15 05:35:33pm", "schedule_type": "STATIC", "schedule_name": "random_18", "is_biased_choice":true,"side_choice": "LEFT", "trial_number":70,"observed_reward":0,"unobserved_reward":0},{"RT":2681,"time": "2018-08-15 05:35:36pm", "schedule_type": "STATIC", "schedule_name": "random_18", "is_biased_choice":false,"side_choice": "RIGHT", "trial_number":71,"observed_reward":0,"unobserved_reward":0},{"RT":2343,"time": "2018-08-15 05:35:38pm", "schedule_type": "STATIC", "schedule_name": "random_18", "is_biased_choice":true,"side_choice": "LEFT", "trial_number":72,"observed_reward":0,"unobserved_reward":0},{"RT":2160,"time": "2018-08-15 05:35:41pm", "schedule_type": "STATIC", "schedule_name": "random_18", "is_biased_choice":true,"side_choice": "LEFT", "trial_number":73,"observed_reward":1,"unobserved_reward":0},{"RT":2105,"time": "2018-08-15 05:35:43pm", "schedule_type": "STATIC", "schedule_name": "random_18", "is_biased_choice":true,"side_choice": "LEFT", "trial_number":74,"observed_reward":0,"unobserved_reward":1},{"RT":2272,"time": "2018-08-15 05:35:45pm", "schedule_type": "STATIC", "schedule_name": "random_18", "is_biased_choice":true,"side_choice": "LEFT", "trial_number":75,"observed_reward":0,"unobserved_reward":0},{"RT":2208,"time": "2018-08-15 05:35:47pm", "schedule_type": "STATIC", "schedule_name": "random_18", "is_biased_choice":true,"side_choice": "LEFT", "trial_number":76,"observed_reward":0,"unobserved_reward":1},{"RT":4448,"time": "2018-08-15 05:35:52pm", "schedule_type": "STATIC", "schedule_name": "random_18", "is_biased_choice":true,"side_choice": "LEFT", "trial_number":77,"observed_reward":0,"unobserved_reward":0},{"RT":2167,"time": "2018-08-15 05:35:54pm", "schedule_type": "STATIC", "schedule_name": "random_18", "is_biased_choice":true,"side_choice": "LEFT", "trial_number":78,"observed_reward":0,"unobserved_reward":0},{"RT":2113,"time": "2018-08-15 05:35:56pm", "schedule_type": "STATIC", "schedule_name": "random_18", "is_biased_choice":false,"side_choice": "RIGHT", "trial_number":79,"observed_reward":0,"unobserved_reward":0},{"RT":2288,"time": "2018-08-15 05:35:58pm", "schedule_type": "STATIC", "schedule_name": "random_18", "is_biased_choice":false,"side_choice": "RIGHT", "trial_number":80,"observed_reward":0,"unobserved_reward":0},{"RT":2263,"time": "2018-08-15 05:36:00pm", "schedule_type": "STATIC", "schedule_name": "random_18", "is_biased_choice":false,"side_choice": "RIGHT", "trial_number":81,"observed_reward":0,"unobserved_reward":0},{"RT":8241,"time": "2018-08-15 05:36:09pm", "schedule_type": "STATIC", "schedule_name": "random_18", "is_biased_choice":true,"side_choice": "LEFT", "trial_number":82,"observed_reward":0,"unobserved_reward":1},{"RT":2200,"time": "2018-08-15 05:36:11pm", "schedule_type": "STATIC", "schedule_name": "random_18", "is_biased_choice":true,"side_choice": "LEFT", "trial_number":83,"observed_reward":0,"unobserved_reward":0},{"RT":4480,"time": "2018-08-15 05:36:15pm", "schedule_type": "STATIC", "schedule_name": "random_18", "is_biased_choice":true,"side_choice": "LEFT", "trial_number":84,"observed_reward":0,"unobserved_reward":0},{"RT":2679,"time": "2018-08-15 05:36:18pm", "schedule_type": "STATIC", "schedule_name": "random_18", "is_biased_choice":false,"side_choice": "RIGHT", "trial_number":85,"observed_reward":0,"unobserved_reward":1},{"RT":2089,"time": "2018-08-15 05:36:20pm", "schedule_type": "STATIC", "schedule_name": "random_18", "is_biased_choice":false,"side_choice": "RIGHT", "trial_number":86,"observed_reward":1,"unobserved_reward":0},{"RT":2160,"time": "2018-08-15 05:36:22pm", "schedule_type": "STATIC", "schedule_name": "random_18", "is_biased_choice":false,"side_choice": "RIGHT", "trial_number":87,"observed_reward":0,"unobserved_reward":1},{"RT":2159,"time": "2018-08-15 05:36:25pm", "schedule_type": "STATIC", "schedule_name": "random_18", "is_biased_choice":false,"side_choice": "RIGHT", "trial_number":88,"observed_reward":1,"unobserved_reward":0},{"RT":2232,"time": "2018-08-15 05:36:27pm", "schedule_type": "STATIC", "schedule_name": "random_18", "is_biased_choice":false,"side_choice": "RIGHT", "trial_number":89,"observed_reward":0,"unobserved_reward":0},{"RT":6926,"time": "2018-08-15 05:36:34pm", "schedule_type": "STATIC", "schedule_name": "random_18", "is_biased_choice":true,"side_choice": "LEFT", "trial_number":90,"observed_reward":1,"unobserved_reward":0},{"RT":2263,"time": "2018-08-15 05:36:36pm", "schedule_type": "STATIC", "schedule_name": "random_18", "is_biased_choice":true,"side_choice": "LEFT", "trial_number":91,"observed_reward":0,"unobserved_reward":0},{"RT":12129,"time": "2018-08-15 05:36:48pm", "schedule_type": "STATIC", "schedule_name": "random_18", "is_biased_choice":true,"side_choice": "LEFT", "trial_number":92,"observed_reward":0,"unobserved_reward":0},{"RT":6528,"time": "2018-08-15 05:36:55pm", "schedule_type": "STATIC", "schedule_name": "random_18", "is_biased_choice":false,"side_choice": "RIGHT", "trial_number":93,"observed_reward":0,"unobserved_reward":1},{"RT":2416,"time": "2018-08-15 05:36:57pm", "schedule_type": "STATIC", "schedule_name": "random_18", "is_biased_choice":true,"side_choice": "LEFT", "trial_number":94,"observed_reward":1,"unobserved_reward":0},{"RT":16225,"time": "2018-08-15 05:37:13pm", "schedule_type": "STATIC", "schedule_name": "random_18", "is_biased_choice":true,"side_choice": "LEFT", "trial_number":95,"observed_reward":1,"unobserved_reward":0},{"RT":2190,"time": "2018-08-15 05:37:15pm", "schedule_type": "STATIC", "schedule_name": "random_18", "is_biased_choice":false,"side_choice": "RIGHT", "trial_number":96,"observed_reward":0,"unobserved_reward":0},{"RT":2577,"time": "2018-08-15 05:37:18pm", "schedule_type": "STATIC", "schedule_name": "random_18", "is_biased_choice":true,"side_choice": "LEFT", "trial_number":97,"observed_reward":0,"unobserved_reward":0},{"RT":2312,"time": "2018-08-15 05:37:20pm", "schedule_type": "STATIC", "schedule_name": "random_18", "is_biased_choice":true,"side_choice": "LEFT", "trial_number":98,"observed_reward":0,"unobserved_reward":0},{"RT":2112,"time": "2018-08-15 05:37:22pm", "schedule_type": "STATIC", "schedule_name": "random_18", "is_biased_choice":true,"side_choice": "LEFT", "trial_number":99,"observed_reward":0,"unobserved_reward":0},