[{"RT":4258,"time": "2018-08-15 03:37:12pm", "schedule_type": "STATIC", "schedule_name": "random_18", "is_biased_choice":true,"side_choice": "RIGHT", "trial_number":0,"observed_reward":1,"unobserved_reward":1},{"RT":12670,"time": "2018-08-15 03:37:25pm", "schedule_type": "STATIC", "schedule_name": "random_18", "is_biased_choice":true,"side_choice": "RIGHT", "trial_number":1,"observed_reward":0,"unobserved_reward":0},{"RT":8231,"time": "2018-08-15 03:37:33pm", "schedule_type": "STATIC", "schedule_name": "random_18", "is_biased_choice":false,"side_choice": "LEFT", "trial_number":2,"observed_reward":0,"unobserved_reward":0},{"RT":4265,"time": "2018-08-15 03:37:37pm", "schedule_type": "STATIC", "schedule_name": "random_18", "is_biased_choice":true,"side_choice": "RIGHT", "trial_number":3,"observed_reward":0,"unobserved_reward":1},{"RT":5874,"time": "2018-08-15 03:37:43pm", "schedule_type": "STATIC", "schedule_name": "random_18", "is_biased_choice":false,"side_choice": "LEFT", "trial_number":4,"observed_reward":0,"unobserved_reward":0},{"RT":3287,"time": "2018-08-15 03:37:47pm", "schedule_type": "STATIC", "schedule_name": "random_18", "is_biased_choice":true,"side_choice": "RIGHT", "trial_number":5,"observed_reward":0,"unobserved_reward":0},{"RT":3663,"time": "2018-08-15 03:37:50pm", "schedule_type": "STATIC", "schedule_name": "random_18", "is_biased_choice":true,"side_choice": "RIGHT", "trial_number":6,"observed_reward":1,"unobserved_reward":0},{"RT":5296,"time": "2018-08-15 03:37:55pm", "schedule_type": "STATIC", "schedule_name": "random_18", "is_biased_choice":false,"side_choice": "LEFT", "trial_number":7,"observed_reward":0,"unobserved_reward":0},{"RT":3217,"time": "2018-08-15 03:37:58pm", "schedule_type": "STATIC", "schedule_name": "random_18", "is_biased_choice":false,"side_choice": "LEFT", "trial_number":8,"observed_reward":0,"unobserved_reward":1},{"RT":2696,"time": "2018-08-15 03:38:01pm", "schedule_type": "STATIC", "schedule_name": "random_18", "is_biased_choice":true,"side_choice": "RIGHT", "trial_number":9,"observed_reward":0,"unobserved_reward":0},{"RT":2824,"time": "2018-08-15 03:38:04pm", "schedule_type": "STATIC", "schedule_name": "random_18", "is_biased_choice":false,"side_choice": "LEFT", "trial_number":10,"observed_reward":0,"unobserved_reward":0},{"RT":2727,"time": "2018-08-15 03:38:07pm", "schedule_type": "STATIC", "schedule_name": "random_18", "is_biased_choice":true,"side_choice": "RIGHT", "trial_number":11,"observed_reward":1,"unobserved_reward":0},{"RT":2589,"time": "2018-08-15 03:38:09pm", "schedule_type": "STATIC", "schedule_name": "random_18", "is_biased_choice":true,"side_choice": "RIGHT", "trial_number":12,"observed_reward":0,"unobserved_reward":0},{"RT":3204,"time": "2018-08-15 03:38:13pm", "schedule_type": "STATIC", "schedule_name": "random_18", "is_biased_choice":false,"side_choice": "LEFT", "trial_number":13,"observed_reward":1,"unobserved_reward":1},{"RT":4143,"time": "2018-08-15 03:38:17pm", "schedule_type": "STATIC", "schedule_name": "random_18", "is_biased_choice":true,"side_choice": "RIGHT", "trial_number":14,"observed_reward":0,"unobserved_reward":0},{"RT":2553,"time": "2018-08-15 03:38:19pm", "schedule_type": "STATIC", "schedule_name": "random_18", "is_biased_choice":true,"side_choice": "RIGHT", "trial_number":15,"observed_reward":1,"unobserved_reward":0},{"RT":3528,"time": "2018-08-15 03:38:23pm", "schedule_type": "STATIC", "schedule_name": "random_18", "is_biased_choice":false,"side_choice": "LEFT", "trial_number":16,"observed_reward":0,"unobserved_reward":1},{"RT":2607,"time": "2018-08-15 03:38:25pm", "schedule_type": "STATIC", "schedule_name": "random_18", "is_biased_choice":true,"side_choice": "RIGHT", "trial_number":17,"observed_reward":0,"unobserved_reward":1},{"RT":3201,"time": "2018-08-15 03:38:29pm", "schedule_type": "STATIC", "schedule_name": "random_18", "is_biased_choice":true,"side_choice": "RIGHT", "trial_number":18,"observed_reward":0,"unobserved_reward":1},{"RT":2512,"time": "2018-08-15 03:38:31pm", "schedule_type": "STATIC", "schedule_name": "random_18", "is_biased_choice":true,"side_choice": "RIGHT", "trial_number":19,"observed_reward":0,"unobserved_reward":0},{"RT":4132,"time": "2018-08-15 03:38:35pm", "schedule_type": "STATIC", "schedule_name": "random_18", "is_biased_choice":true,"side_choice": "RIGHT", "trial_number":20,"observed_reward":0,"unobserved_reward":0},{"RT":2467,"time": "2018-08-15 03:38:38pm", "schedule_type": "STATIC", "schedule_name": "random_18", "is_biased_choice":false,"side_choice": "LEFT", "trial_number":21,"observed_reward":0,"unobserved_reward":0},{"RT":3519,"time": "2018-08-15 03:38:41pm", "schedule_type": "STATIC", "schedule_name": "random_18", "is_biased_choice":true,"side_choice": "RIGHT", "trial_number":22,"observed_reward":0,"unobserved_reward":0},{"RT":2489,"time": "2018-08-15 03:38:44pm", "schedule_type": "STATIC", "schedule_name": "random_18", "is_biased_choice":false,"side_choice": "LEFT", "trial_number":23,"observed_reward":0,"unobserved_reward":0},{"RT":2682,"time": "2018-08-15 03:38:46pm", "schedule_type": "STATIC", "schedule_name": "random_18", "is_biased_choice":true,"side_choice": "RIGHT", "trial_number":24,"observed_reward":0,"unobserved_reward":1},{"RT":2855,"time": "2018-08-15 03:38:49pm", "schedule_type": "STATIC", "schedule_name": "random_18", "is_biased_choice":false,"side_choice": "LEFT", "trial_number":25,"observed_reward":0,"unobserved_reward":0},{"RT":3096,"time": "2018-08-15 03:38:52pm", "schedule_type": "STATIC", "schedule_name": "random_18", "is_biased_choice":true,"side_choice": "RIGHT", "trial_number":26,"observed_reward":0,"unobserved_reward":0},{"RT":3207,"time": "2018-08-15 03:38:56pm", "schedule_type": "STATIC", "schedule_name": "random_18", "is_biased_choice":true,"side_choice": "RIGHT", "trial_number":27,"observed_reward":1,"unobserved_reward":1},{"RT":2897,"time": "2018-08-15 03:38:58pm", "schedule_type": "STATIC", "schedule_name": "random_18", "is_biased_choice":true,"side_choice": "RIGHT", "trial_number":28,"observed_reward":0,"unobserved_reward":0},{"RT":2711,"time": "2018-08-15 03:39:01pm", "schedule_type": "STATIC", "schedule_name": "random_18", "is_biased_choice":true,"side_choice": "RIGHT", "trial_number":29,"observed_reward":0,"unobserved_reward":1},{"RT":2274,"time": "2018-08-15 03:39:03pm", "schedule_type": "STATIC", "schedule_name": "random_18", "is_biased_choice":true,"side_choice": "RIGHT", "trial_number":30,"observed_reward":0,"unobserved_reward":0},{"RT":3344,"time": "2018-08-15 03:39:07pm", "schedule_type": "STATIC", "schedule_name": "random_18", "is_biased_choice":false,"side_choice": "LEFT", "trial_number":31,"observed_reward":0,"unobserved_reward":1},{"RT":2807,"time": "2018-08-15 03:39:09pm", "schedule_type": "STATIC", "schedule_name": "random_18", "is_biased_choice":true,"side_choice": "RIGHT", "trial_number":32,"observed_reward":0,"unobserved_reward":0},{"RT":2656,"time": "2018-08-15 03:39:12pm", "schedule_type": "STATIC", "schedule_name": "random_18", "is_biased_choice":false,"side_choice": "LEFT", "trial_number":33,"observed_reward":0,"unobserved_reward":0},{"RT":3888,"time": "2018-08-15 03:39:16pm", "schedule_type": "STATIC", "schedule_name": "random_18", "is_biased_choice":true,"side_choice": "RIGHT", "trial_number":34,"observed_reward":0,"unobserved_reward":1},{"RT":2880,"time": "2018-08-15 03:39:19pm", "schedule_type": "STATIC", "schedule_name": "random_18", "is_biased_choice":true,"side_choice": "RIGHT", "trial_number":35,"observed_reward":0,"unobserved_reward":0},{"RT":2799,"time": "2018-08-15 03:39:22pm", "schedule_type": "STATIC", "schedule_name": "random_18", "is_biased_choice":true,"side_choice": "RIGHT", "trial_number":36,"observed_reward":1,"unobserved_reward":0},{"RT":3337,"time": "2018-08-15 03:39:25pm", "schedule_type": "STATIC", "schedule_name": "random_18", "is_biased_choice":true,"side_choice": "RIGHT", "trial_number":37,"observed_reward":0,"unobserved_reward":1},{"RT":2728,"time": "2018-08-15 03:39:28pm", "schedule_type": "STATIC", "schedule_name": "random_18", "is_biased_choice":true,"side_choice": "RIGHT", "trial_number":38,"observed_reward":0,"unobserved_reward":0},{"RT":2759,"time": "2018-08-15 03:39:30pm", "schedule_type": "STATIC", "schedule_name": "random_18", "is_biased_choice":true,"side_choice": "RIGHT", "trial_number":39,"observed_reward":0,"unobserved_reward":0},{"RT":2473,"time": "2018-08-15 03:39:33pm", "schedule_type": "STATIC", "schedule_name": "random_18", "is_biased_choice":true,"side_choice": "RIGHT", "trial_number":40,"observed_reward":0,"unobserved_reward":0},{"RT":4335,"time": "2018-08-15 03:39:38pm", "schedule_type": "STATIC", "schedule_name": "random_18", "is_biased_choice":false,"side_choice": "LEFT", "trial_number":41,"observed_reward":0,"unobserved_reward":0},{"RT":2857,"time": "2018-08-15 03:39:40pm", "schedule_type": "STATIC", "schedule_name": "random_18", "is_biased_choice":false,"side_choice": "LEFT", "trial_number":42,"observed_reward":0,"unobserved_reward":0},{"RT":2816,"time": "2018-08-15 03:39:43pm", "schedule_type": "STATIC", "schedule_name": "random_18", "is_biased_choice":true,"side_choice": "RIGHT", "trial_number":43,"observed_reward":0,"unobserved_reward":0},{"RT":2599,"time": "2018-08-15 03:39:46pm", "schedule_type": "STATIC", "schedule_name": "random_18", "is_biased_choice":false,"side_choice": "LEFT", "trial_number":44,"observed_reward":0,"unobserved_reward":0},{"RT":2889,"time": "2018-08-15 03:39:48pm", "schedule_type": "STATIC", "schedule_name": "random_18", "is_biased_choice":true,"side_choice": "RIGHT", "trial_number":45,"observed_reward":0,"unobserved_reward":1},{"RT":3850,"time": "2018-08-15 03:39:53pm", "schedule_type": "STATIC", "schedule_name": "random_18", "is_biased_choice":true,"side_choice": "RIGHT", "trial_number":46,"observed_reward":1,"unobserved_reward":0},{"RT":2949,"time": "2018-08-15 03:39:55pm", "schedule_type": "STATIC", "schedule_name": "random_18", "is_biased_choice":true,"side_choice": "RIGHT", "trial_number":47,"observed_reward":0,"unobserved_reward":1},{"RT":56489,"time": "2018-08-15 03:40:52pm", "schedule_type": "STATIC", "schedule_name": "random_18", "is_biased_choice":false,"side_choice": "LEFT", "trial_number":48,"observed_reward":0,"unobserved_reward":0},{"RT":4383,"time": "2018-08-15 03:40:56pm", "schedule_type": "STATIC", "schedule_name": "random_18", "is_biased_choice":false,"side_choice": "LEFT", "trial_number":49,"observed_reward":0,"unobserved_reward":0},{"RT":2663,"time": "2018-08-15 03:40:59pm", "schedule_type": "STATIC", "schedule_name": "random_18", "is_biased_choice":true,"side_choice": "RIGHT", "trial_number":50,"observed_reward":0,"unobserved_reward":0},{"RT":3010,"time": "2018-08-15 03:41:02pm", "schedule_type": "STATIC", "schedule_name": "random_18", "is_biased_choice":true,"side_choice": "RIGHT", "trial_number":51,"observed_reward":1,"unobserved_reward":1},{"RT":2982,"time": "2018-08-15 03:41:05pm", "schedule_type": "STATIC", "schedule_name": "random_18", "is_biased_choice":true,"side_choice": "RIGHT", "trial_number":52,"observed_reward":0,"unobserved_reward":0},{"RT":3913,"time": "2018-08-15 03:41:09pm", "schedule_type": "STATIC", "schedule_name": "random_18", "is_biased_choice":true,"side_choice": "RIGHT", "trial_number":53,"observed_reward":1,"unobserved_reward":1},{"RT":3880,"time": "2018-08-15 03:41:13pm", "schedule_type": "STATIC", "schedule_name": "random_18", "is_biased_choice":true,"side_choice": "RIGHT", "trial_number":54,"observed_reward":1,"unobserved_reward":0},{"RT":2864,"time": "2018-08-15 03:41:15pm", "schedule_type": "STATIC", "schedule_name": "random_18", "is_biased_choice":true,"side_choice": "RIGHT", "trial_number":55,"observed_reward":1,"unobserved_reward":0},{"RT":2776,"time": "2018-08-15 03:41:18pm", "schedule_type": "STATIC", "schedule_name": "random_18", "is_biased_choice":true,"side_choice": "RIGHT", "trial_number":56,"observed_reward":0,"unobserved_reward":1},{"RT":2872,"time": "2018-08-15 03:41:21pm", "schedule_type": "STATIC", "schedule_name": "random_18", "is_biased_choice":false,"side_choice": "LEFT", "trial_number":57,"observed_reward":0,"unobserved_reward":0},{"RT":2800,"time": "2018-08-15 03:41:24pm", "schedule_type": "STATIC", "schedule_name": "random_18", "is_biased_choice":true,"side_choice": "RIGHT", "trial_number":58,"observed_reward":0,"unobserved_reward":1},{"RT":2601,"time": "2018-08-15 03:41:26pm", "schedule_type": "STATIC", "schedule_name": "random_18", "is_biased_choice":true,"side_choice": "RIGHT", "trial_number":59,"observed_reward":1,"unobserved_reward":0},{"RT":2439,"time": "2018-08-15 03:41:29pm", "schedule_type": "STATIC", "schedule_name": "random_18", "is_biased_choice":true,"side_choice": "RIGHT", "trial_number":60,"observed_reward":0,"unobserved_reward":0},{"RT":2960,"time": "2018-08-15 03:41:32pm", "schedule_type": "STATIC", "schedule_name": "random_18", "is_biased_choice":true,"side_choice": "RIGHT", "trial_number":61,"observed_reward":0,"unobserved_reward":0},{"RT":2552,"time": "2018-08-15 03:41:34pm", "schedule_type": "STATIC", "schedule_name": "random_18", "is_biased_choice":true,"side_choice": "RIGHT", "trial_number":62,"observed_reward":0,"unobserved_reward":1},{"RT":2488,"time": "2018-08-15 03:41:37pm", "schedule_type": "STATIC", "schedule_name": "random_18", "is_biased_choice":true,"side_choice": "RIGHT", "trial_number":63,"observed_reward":0,"unobserved_reward":1},{"RT":2992,"time": "2018-08-15 03:41:40pm", "schedule_type": "STATIC", "schedule_name": "random_18", "is_biased_choice":false,"side_choice": "LEFT", "trial_number":64,"observed_reward":0,"unobserved_reward":1},{"RT":2729,"time": "2018-08-15 03:41:43pm", "schedule_type": "STATIC", "schedule_name": "random_18", "is_biased_choice":true,"side_choice": "RIGHT", "trial_number":65,"observed_reward":0,"unobserved_reward":0},{"RT":3919,"time": "2018-08-15 03:41:47pm", "schedule_type": "STATIC", "schedule_name": "random_18", "is_biased_choice":true,"side_choice": "RIGHT", "trial_number":66,"observed_reward":0,"unobserved_reward":0},{"RT":3095,"time": "2018-08-15 03:41:50pm", "schedule_type": "STATIC", "schedule_name": "random_18", "is_biased_choice":true,"side_choice": "RIGHT", "trial_number":67,"observed_reward":1,"unobserved_reward":1},{"RT":3217,"time": "2018-08-15 03:41:53pm", "schedule_type": "STATIC", "schedule_name": "random_18", "is_biased_choice":true,"side_choice": "RIGHT", "trial_number":68,"observed_reward":0,"unobserved_reward":1},{"RT":3727,"time": "2018-08-15 03:41:57pm", "schedule_type": "STATIC", "schedule_name": "random_18", "is_biased_choice":true,"side_choice": "RIGHT", "trial_number":69,"observed_reward":0,"unobserved_reward":0},{"RT":3025,"time": "2018-08-15 03:42:00pm", "schedule_type": "STATIC", "schedule_name": "random_18", "is_biased_choice":false,"side_choice": "LEFT", "trial_number":70,"observed_reward":0,"unobserved_reward":0},{"RT":3249,"time": "2018-08-15 03:42:03pm", "schedule_type": "STATIC", "schedule_name": "random_18", "is_biased_choice":true,"side_choice": "RIGHT", "trial_number":71,"observed_reward":0,"unobserved_reward":0},{"RT":6895,"time": "2018-08-15 03:42:10pm", "schedule_type": "STATIC", "schedule_name": "random_18", "is_biased_choice":true,"side_choice": "RIGHT", "trial_number":72,"observed_reward":0,"unobserved_reward":0},{"RT":2896,"time": "2018-08-15 03:42:13pm", "schedule_type": "STATIC", "schedule_name": "random_18", "is_biased_choice":true,"side_choice": "RIGHT", "trial_number":73,"observed_reward":1,"unobserved_reward":0},{"RT":3312,"time": "2018-08-15 03:42:16pm", "schedule_type": "STATIC", "schedule_name": "random_18", "is_biased_choice":true,"side_choice": "RIGHT", "trial_number":74,"observed_reward":0,"unobserved_reward":1},{"RT":3040,"time": "2018-08-15 03:42:19pm", "schedule_type": "STATIC", "schedule_name": "random_18", "is_biased_choice":false,"side_choice": "LEFT", "trial_number":75,"observed_reward":0,"unobserved_reward":0},{"RT":4353,"time": "2018-08-15 03:42:23pm", "schedule_type": "STATIC", "schedule_name": "random_18", "is_biased_choice":false,"side_choice": "LEFT", "trial_number":76,"observed_reward":1,"unobserved_reward":0},{"RT":3152,"time": "2018-08-15 03:42:27pm", "schedule_type": "STATIC", "schedule_name": "random_18", "is_biased_choice":true,"side_choice": "RIGHT", "trial_number":77,"observed_reward":0,"unobserved_reward":0},{"RT":3288,"time": "2018-08-15 03:42:30pm", "schedule_type": "STATIC", "schedule_name": "random_18", "is_biased_choice":true,"side_choice": "RIGHT", "trial_number":78,"observed_reward":0,"unobserved_reward":0},{"RT":2655,"time": "2018-08-15 03:42:32pm", "schedule_type": "STATIC", "schedule_name": "random_18", "is_biased_choice":false,"side_choice": "LEFT", "trial_number":79,"observed_reward":0,"unobserved_reward":0},{"RT":2713,"time": "2018-08-15 03:42:35pm", "schedule_type": "STATIC", "schedule_name": "random_18", "is_biased_choice":true,"side_choice": "RIGHT", "trial_number":80,"observed_reward":0,"unobserved_reward":0},{"RT":3296,"time": "2018-08-15 03:42:39pm", "schedule_type": "STATIC", "schedule_name": "random_18", "is_biased_choice":true,"side_choice": "RIGHT", "trial_number":81,"observed_reward":0,"unobserved_reward":0},{"RT":2512,"time": "2018-08-15 03:42:41pm", "schedule_type": "STATIC", "schedule_name": "random_18", "is_biased_choice":true,"side_choice": "RIGHT", "trial_number":82,"observed_reward":0,"unobserved_reward":1},{"RT":2958,"time": "2018-08-15 03:42:44pm", "schedule_type": "STATIC", "schedule_name": "random_18", "is_biased_choice":true,"side_choice": "RIGHT", "trial_number":83,"observed_reward":0,"unobserved_reward":0},{"RT":2834,"time": "2018-08-15 03:42:47pm", "schedule_type": "STATIC", "schedule_name": "random_18", "is_biased_choice":true,"side_choice": "RIGHT", "trial_number":84,"observed_reward":0,"unobserved_reward":0},{"RT":2976,"time": "2018-08-15 03:42:50pm", "schedule_type": "STATIC", "schedule_name": "random_18", "is_biased_choice":true,"side_choice": "RIGHT", "trial_number":85,"observed_reward":1,"unobserved_reward":0},{"RT":2719,"time": "2018-08-15 03:42:53pm", "schedule_type": "STATIC", "schedule_name": "random_18", "is_biased_choice":true,"side_choice": "RIGHT", "trial_number":86,"observed_reward":0,"unobserved_reward":1},{"RT":3488,"time": "2018-08-15 03:42:56pm", "schedule_type": "STATIC", "schedule_name": "random_18", "is_biased_choice":false,"side_choice": "LEFT", "trial_number":87,"observed_reward":0,"unobserved_reward":1},{"RT":2848,"time": "2018-08-15 03:42:59pm", "schedule_type": "STATIC", "schedule_name": "random_18", "is_biased_choice":true,"side_choice": "RIGHT", "trial_number":88,"observed_reward":0,"unobserved_reward":1},{"RT":2719,"time": "2018-08-15 03:43:02pm", "schedule_type": "STATIC", "schedule_name": "random_18", "is_biased_choice":true,"side_choice": "RIGHT", "trial_number":89,"observed_reward":0,"unobserved_reward":0},{"RT":2473,"time": "2018-08-15 03:43:04pm", "schedule_type": "STATIC", "schedule_name": "random_18", "is_biased_choice":false,"side_choice": "LEFT", "trial_number":90,"observed_reward":0,"unobserved_reward":1},{"RT":2743,"time": "2018-08-15 03:43:07pm", "schedule_type": "STATIC", "schedule_name": "random_18", "is_biased_choice":true,"side_choice": "RIGHT", "trial_number":91,"observed_reward":0,"unobserved_reward":0},{"RT":2801,"time": "2018-08-15 03:43:10pm", "schedule_type": "STATIC", "schedule_name": "random_18", "is_biased_choice":true,"side_choice": "RIGHT", "trial_number":92,"observed_reward":0,"unobserved_reward":0},{"RT":2591,"time": "2018-08-15 03:43:12pm", "schedule_type": "STATIC", "schedule_name": "random_18", "is_biased_choice":true,"side_choice": "RIGHT", "trial_number":93,"observed_reward":1,"unobserved_reward":0},{"RT":2913,"time": "2018-08-15 03:43:15pm", "schedule_type": "STATIC", "schedule_name": "random_18", "is_biased_choice":true,"side_choice": "RIGHT", "trial_number":94,"observed_reward":1,"unobserved_reward":0},{"RT":3793,"time": "2018-08-15 03:43:19pm", "schedule_type": "STATIC", "schedule_name": "random_18", "is_biased_choice":false,"side_choice": "LEFT", "trial_number":95,"observed_reward":0,"unobserved_reward":1},{"RT":2451,"time": "2018-08-15 03:43:21pm", "schedule_type": "STATIC", "schedule_name": "random_18", "is_biased_choice":false,"side_choice": "LEFT", "trial_number":96,"observed_reward":0,"unobserved_reward":0},{"RT":2915,"time": "2018-08-15 03:43:24pm", "schedule_type": "STATIC", "schedule_name": "random_18", "is_biased_choice":false,"side_choice": "LEFT", "trial_number":97,"observed_reward":0,"unobserved_reward":0},{"RT":2545,"time": "2018-08-15 03:43:27pm", "schedule_type": "STATIC", "schedule_name": "random_18", "is_biased_choice":false,"side_choice": "LEFT", "trial_number":98,"observed_reward":0,"unobserved_reward":0},