[{"RT":6517,"time": "2018-08-15 01:43:28pm", "schedule_type": "STATIC", "schedule_name": "random_12", "is_biased_choice":true,"side_choice": "RIGHT", "trial_number":0,"observed_reward":1,"unobserved_reward":0},{"RT":5173,"time": "2018-08-15 01:43:34pm", "schedule_type": "STATIC", "schedule_name": "random_12", "is_biased_choice":true,"side_choice": "RIGHT", "trial_number":1,"observed_reward":1,"unobserved_reward":1},{"RT":13281,"time": "2018-08-15 01:43:47pm", "schedule_type": "STATIC", "schedule_name": "random_12", "is_biased_choice":false,"side_choice": "LEFT", "trial_number":2,"observed_reward":0,"unobserved_reward":0},{"RT":4531,"time": "2018-08-15 01:43:51pm", "schedule_type": "STATIC", "schedule_name": "random_12", "is_biased_choice":true,"side_choice": "RIGHT", "trial_number":3,"observed_reward":0,"unobserved_reward":0},{"RT":10704,"time": "2018-08-15 01:44:02pm", "schedule_type": "STATIC", "schedule_name": "random_12", "is_biased_choice":true,"side_choice": "RIGHT", "trial_number":4,"observed_reward":0,"unobserved_reward":0},{"RT":4187,"time": "2018-08-15 01:44:06pm", "schedule_type": "STATIC", "schedule_name": "random_12", "is_biased_choice":false,"side_choice": "LEFT", "trial_number":5,"observed_reward":0,"unobserved_reward":0},{"RT":4000,"time": "2018-08-15 01:44:10pm", "schedule_type": "STATIC", "schedule_name": "random_12", "is_biased_choice":true,"side_choice": "RIGHT", "trial_number":6,"observed_reward":0,"unobserved_reward":1},{"RT":5156,"time": "2018-08-15 01:44:15pm", "schedule_type": "STATIC", "schedule_name": "random_12", "is_biased_choice":true,"side_choice": "RIGHT", "trial_number":7,"observed_reward":0,"unobserved_reward":0},{"RT":4680,"time": "2018-08-15 01:44:20pm", "schedule_type": "STATIC", "schedule_name": "random_12", "is_biased_choice":false,"side_choice": "LEFT", "trial_number":8,"observed_reward":0,"unobserved_reward":0},{"RT":3680,"time": "2018-08-15 01:44:25pm", "schedule_type": "STATIC", "schedule_name": "random_12", "is_biased_choice":true,"side_choice": "RIGHT", "trial_number":9,"observed_reward":1,"unobserved_reward":1},{"RT":4233,"time": "2018-08-15 01:44:28pm", "schedule_type": "STATIC", "schedule_name": "random_12", "is_biased_choice":true,"side_choice": "RIGHT", "trial_number":10,"observed_reward":0,"unobserved_reward":0},{"RT":3734,"time": "2018-08-15 01:44:32pm", "schedule_type": "STATIC", "schedule_name": "random_12", "is_biased_choice":true,"side_choice": "RIGHT", "trial_number":11,"observed_reward":0,"unobserved_reward":1},{"RT":4032,"time": "2018-08-15 01:44:36pm", "schedule_type": "STATIC", "schedule_name": "random_12", "is_biased_choice":false,"side_choice": "LEFT", "trial_number":12,"observed_reward":0,"unobserved_reward":0},{"RT":3564,"time": "2018-08-15 01:44:39pm", "schedule_type": "STATIC", "schedule_name": "random_12", "is_biased_choice":true,"side_choice": "RIGHT", "trial_number":13,"observed_reward":0,"unobserved_reward":1},{"RT":4326,"time": "2018-08-15 01:44:44pm", "schedule_type": "STATIC", "schedule_name": "random_12", "is_biased_choice":true,"side_choice": "RIGHT", "trial_number":14,"observed_reward":0,"unobserved_reward":0},{"RT":3986,"time": "2018-08-15 01:44:48pm", "schedule_type": "STATIC", "schedule_name": "random_12", "is_biased_choice":false,"side_choice": "LEFT", "trial_number":15,"observed_reward":0,"unobserved_reward":1},{"RT":3718,"time": "2018-08-15 01:44:51pm", "schedule_type": "STATIC", "schedule_name": "random_12", "is_biased_choice":true,"side_choice": "RIGHT", "trial_number":16,"observed_reward":0,"unobserved_reward":0},{"RT":3657,"time": "2018-08-15 01:44:55pm", "schedule_type": "STATIC", "schedule_name": "random_12", "is_biased_choice":true,"side_choice": "RIGHT", "trial_number":17,"observed_reward":0,"unobserved_reward":0},{"RT":4175,"time": "2018-08-15 01:44:59pm", "schedule_type": "STATIC", "schedule_name": "random_12", "is_biased_choice":false,"side_choice": "LEFT", "trial_number":18,"observed_reward":0,"unobserved_reward":1},{"RT":3574,"time": "2018-08-15 01:45:03pm", "schedule_type": "STATIC", "schedule_name": "random_12", "is_biased_choice":true,"side_choice": "RIGHT", "trial_number":19,"observed_reward":1,"unobserved_reward":0},{"RT":4016,"time": "2018-08-15 01:45:07pm", "schedule_type": "STATIC", "schedule_name": "random_12", "is_biased_choice":false,"side_choice": "LEFT", "trial_number":20,"observed_reward":0,"unobserved_reward":0},{"RT":3798,"time": "2018-08-15 01:45:11pm", "schedule_type": "STATIC", "schedule_name": "random_12", "is_biased_choice":true,"side_choice": "RIGHT", "trial_number":21,"observed_reward":0,"unobserved_reward":0},{"RT":3703,"time": "2018-08-15 01:45:14pm", "schedule_type": "STATIC", "schedule_name": "random_12", "is_biased_choice":false,"side_choice": "LEFT", "trial_number":22,"observed_reward":0,"unobserved_reward":1},{"RT":3109,"time": "2018-08-15 01:45:17pm", "schedule_type": "STATIC", "schedule_name": "random_12", "is_biased_choice":true,"side_choice": "RIGHT", "trial_number":23,"observed_reward":0,"unobserved_reward":1},{"RT":3921,"time": "2018-08-15 01:45:21pm", "schedule_type": "STATIC", "schedule_name": "random_12", "is_biased_choice":true,"side_choice": "RIGHT", "trial_number":24,"observed_reward":0,"unobserved_reward":0},{"RT":3830,"time": "2018-08-15 01:45:25pm", "schedule_type": "STATIC", "schedule_name": "random_12", "is_biased_choice":true,"side_choice": "RIGHT", "trial_number":25,"observed_reward":0,"unobserved_reward":1},{"RT":3499,"time": "2018-08-15 01:45:29pm", "schedule_type": "STATIC", "schedule_name": "random_12", "is_biased_choice":true,"side_choice": "RIGHT", "trial_number":26,"observed_reward":0,"unobserved_reward":1},{"RT":3547,"time": "2018-08-15 01:45:32pm", "schedule_type": "STATIC", "schedule_name": "random_12", "is_biased_choice":true,"side_choice": "RIGHT", "trial_number":27,"observed_reward":1,"unobserved_reward":0},{"RT":3937,"time": "2018-08-15 01:45:36pm", "schedule_type": "STATIC", "schedule_name": "random_12", "is_biased_choice":false,"side_choice": "LEFT", "trial_number":28,"observed_reward":1,"unobserved_reward":0},{"RT":3891,"time": "2018-08-15 01:45:40pm", "schedule_type": "STATIC", "schedule_name": "random_12", "is_biased_choice":true,"side_choice": "RIGHT", "trial_number":29,"observed_reward":0,"unobserved_reward":0},{"RT":3609,"time": "2018-08-15 01:45:44pm", "schedule_type": "STATIC", "schedule_name": "random_12", "is_biased_choice":false,"side_choice": "LEFT", "trial_number":30,"observed_reward":1,"unobserved_reward":0},{"RT":3688,"time": "2018-08-15 01:45:47pm", "schedule_type": "STATIC", "schedule_name": "random_12", "is_biased_choice":true,"side_choice": "RIGHT", "trial_number":31,"observed_reward":0,"unobserved_reward":0},{"RT":3298,"time": "2018-08-15 01:45:51pm", "schedule_type": "STATIC", "schedule_name": "random_12", "is_biased_choice":false,"side_choice": "LEFT", "trial_number":32,"observed_reward":1,"unobserved_reward":0},{"RT":3468,"time": "2018-08-15 01:45:54pm", "schedule_type": "STATIC", "schedule_name": "random_12", "is_biased_choice":true,"side_choice": "RIGHT", "trial_number":33,"observed_reward":1,"unobserved_reward":0},{"RT":4296,"time": "2018-08-15 01:45:58pm", "schedule_type": "STATIC", "schedule_name": "random_12", "is_biased_choice":true,"side_choice": "RIGHT", "trial_number":34,"observed_reward":0,"unobserved_reward":0},{"RT":3719,"time": "2018-08-15 01:46:02pm", "schedule_type": "STATIC", "schedule_name": "random_12", "is_biased_choice":false,"side_choice": "LEFT", "trial_number":35,"observed_reward":0,"unobserved_reward":0},{"RT":6172,"time": "2018-08-15 01:46:08pm", "schedule_type": "STATIC", "schedule_name": "random_12", "is_biased_choice":true,"side_choice": "RIGHT", "trial_number":36,"observed_reward":0,"unobserved_reward":0},{"RT":3437,"time": "2018-08-15 01:46:12pm", "schedule_type": "STATIC", "schedule_name": "random_12", "is_biased_choice":false,"side_choice": "LEFT", "trial_number":37,"observed_reward":0,"unobserved_reward":0},{"RT":3422,"time": "2018-08-15 01:46:15pm", "schedule_type": "STATIC", "schedule_name": "random_12", "is_biased_choice":true,"side_choice": "RIGHT", "trial_number":38,"observed_reward":0,"unobserved_reward":0},{"RT":3503,"time": "2018-08-15 01:46:19pm", "schedule_type": "STATIC", "schedule_name": "random_12", "is_biased_choice":false,"side_choice": "LEFT", "trial_number":39,"observed_reward":0,"unobserved_reward":0},{"RT":3263,"time": "2018-08-15 01:46:22pm", "schedule_type": "STATIC", "schedule_name": "random_12", "is_biased_choice":true,"side_choice": "RIGHT", "trial_number":40,"observed_reward":0,"unobserved_reward":0},{"RT":3609,"time": "2018-08-15 01:46:27pm", "schedule_type": "STATIC", "schedule_name": "random_12", "is_biased_choice":true,"side_choice": "RIGHT", "trial_number":41,"observed_reward":0,"unobserved_reward":1},{"RT":6484,"time": "2018-08-15 01:46:32pm", "schedule_type": "STATIC", "schedule_name": "random_12", "is_biased_choice":true,"side_choice": "RIGHT", "trial_number":42,"observed_reward":0,"unobserved_reward":0},{"RT":3735,"time": "2018-08-15 01:46:36pm", "schedule_type": "STATIC", "schedule_name": "random_12", "is_biased_choice":true,"side_choice": "RIGHT", "trial_number":43,"observed_reward":0,"unobserved_reward":0},{"RT":3609,"time": "2018-08-15 01:46:39pm", "schedule_type": "STATIC", "schedule_name": "random_12", "is_biased_choice":false,"side_choice": "LEFT", "trial_number":44,"observed_reward":1,"unobserved_reward":0},{"RT":3484,"time": "2018-08-15 01:46:43pm", "schedule_type": "STATIC", "schedule_name": "random_12", "is_biased_choice":true,"side_choice": "RIGHT", "trial_number":45,"observed_reward":1,"unobserved_reward":1},{"RT":3907,"time": "2018-08-15 01:46:47pm", "schedule_type": "STATIC", "schedule_name": "random_12", "is_biased_choice":true,"side_choice": "RIGHT", "trial_number":46,"observed_reward":1,"unobserved_reward":0},{"RT":3797,"time": "2018-08-15 01:46:51pm", "schedule_type": "STATIC", "schedule_name": "random_12", "is_biased_choice":true,"side_choice": "RIGHT", "trial_number":47,"observed_reward":0,"unobserved_reward":0},{"RT":5751,"time": "2018-08-15 01:46:56pm", "schedule_type": "STATIC", "schedule_name": "random_12", "is_biased_choice":true,"side_choice": "RIGHT", "trial_number":48,"observed_reward":0,"unobserved_reward":0},{"RT":3796,"time": "2018-08-15 01:47:00pm", "schedule_type": "STATIC", "schedule_name": "random_12", "is_biased_choice":false,"side_choice": "LEFT", "trial_number":49,"observed_reward":0,"unobserved_reward":0},{"RT":3687,"time": "2018-08-15 01:47:04pm", "schedule_type": "STATIC", "schedule_name": "random_12", "is_biased_choice":true,"side_choice": "RIGHT", "trial_number":50,"observed_reward":0,"unobserved_reward":0},{"RT":3344,"time": "2018-08-15 01:47:07pm", "schedule_type": "STATIC", "schedule_name": "random_12", "is_biased_choice":false,"side_choice": "LEFT", "trial_number":51,"observed_reward":0,"unobserved_reward":0},{"RT":3922,"time": "2018-08-15 01:47:11pm", "schedule_type": "STATIC", "schedule_name": "random_12", "is_biased_choice":true,"side_choice": "RIGHT", "trial_number":52,"observed_reward":0,"unobserved_reward":1},{"RT":3312,"time": "2018-08-15 01:47:14pm", "schedule_type": "STATIC", "schedule_name": "random_12", "is_biased_choice":true,"side_choice": "RIGHT", "trial_number":53,"observed_reward":0,"unobserved_reward":0},{"RT":3267,"time": "2018-08-15 01:47:18pm", "schedule_type": "STATIC", "schedule_name": "random_12", "is_biased_choice":true,"side_choice": "RIGHT", "trial_number":54,"observed_reward":0,"unobserved_reward":0},{"RT":4000,"time": "2018-08-15 01:47:22pm", "schedule_type": "STATIC", "schedule_name": "random_12", "is_biased_choice":true,"side_choice": "RIGHT", "trial_number":55,"observed_reward":0,"unobserved_reward":0},{"RT":3624,"time": "2018-08-15 01:47:27pm", "schedule_type": "STATIC", "schedule_name": "random_12", "is_biased_choice":false,"side_choice": "LEFT", "trial_number":56,"observed_reward":0,"unobserved_reward":0},{"RT":4110,"time": "2018-08-15 01:47:29pm", "schedule_type": "STATIC", "schedule_name": "random_12", "is_biased_choice":true,"side_choice": "RIGHT", "trial_number":57,"observed_reward":0,"unobserved_reward":0},{"RT":3566,"time": "2018-08-15 01:47:33pm", "schedule_type": "STATIC", "schedule_name": "random_12", "is_biased_choice":true,"side_choice": "RIGHT", "trial_number":58,"observed_reward":0,"unobserved_reward":0},{"RT":3668,"time": "2018-08-15 01:47:37pm", "schedule_type": "STATIC", "schedule_name": "random_12", "is_biased_choice":false,"side_choice": "LEFT", "trial_number":59,"observed_reward":1,"unobserved_reward":0},{"RT":3593,"time": "2018-08-15 01:47:40pm", "schedule_type": "STATIC", "schedule_name": "random_12", "is_biased_choice":true,"side_choice": "RIGHT", "trial_number":60,"observed_reward":0,"unobserved_reward":1},{"RT":7000,"time": "2018-08-15 01:47:47pm", "schedule_type": "STATIC", "schedule_name": "random_12", "is_biased_choice":true,"side_choice": "RIGHT", "trial_number":61,"observed_reward":0,"unobserved_reward":0},{"RT":3422,"time": "2018-08-15 01:47:51pm", "schedule_type": "STATIC", "schedule_name": "random_12", "is_biased_choice":false,"side_choice": "LEFT", "trial_number":62,"observed_reward":0,"unobserved_reward":0},{"RT":3158,"time": "2018-08-15 01:47:54pm", "schedule_type": "STATIC", "schedule_name": "random_12", "is_biased_choice":true,"side_choice": "RIGHT", "trial_number":63,"observed_reward":0,"unobserved_reward":1},{"RT":3404,"time": "2018-08-15 01:47:57pm", "schedule_type": "STATIC", "schedule_name": "random_12", "is_biased_choice":true,"side_choice": "RIGHT", "trial_number":64,"observed_reward":1,"unobserved_reward":0},{"RT":3345,"time": "2018-08-15 01:48:01pm", "schedule_type": "STATIC", "schedule_name": "random_12", "is_biased_choice":true,"side_choice": "RIGHT", "trial_number":65,"observed_reward":0,"unobserved_reward":0},{"RT":3205,"time": "2018-08-15 01:48:04pm", "schedule_type": "STATIC", "schedule_name": "random_12", "is_biased_choice":true,"side_choice": "RIGHT", "trial_number":66,"observed_reward":1,"unobserved_reward":1},{"RT":3356,"time": "2018-08-15 01:48:07pm", "schedule_type": "STATIC", "schedule_name": "random_12", "is_biased_choice":true,"side_choice": "RIGHT", "trial_number":67,"observed_reward":0,"unobserved_reward":0},{"RT":3265,"time": "2018-08-15 01:48:10pm", "schedule_type": "STATIC", "schedule_name": "random_12", "is_biased_choice":true,"side_choice": "RIGHT", "trial_number":68,"observed_reward":0,"unobserved_reward":0},{"RT":3141,"time": "2018-08-15 01:48:14pm", "schedule_type": "STATIC", "schedule_name": "random_12", "is_biased_choice":true,"side_choice": "RIGHT", "trial_number":69,"observed_reward":1,"unobserved_reward":0},{"RT":3657,"time": "2018-08-15 01:48:17pm", "schedule_type": "STATIC", "schedule_name": "random_12", "is_biased_choice":true,"side_choice": "RIGHT", "trial_number":70,"observed_reward":0,"unobserved_reward":0},{"RT":3390,"time": "2018-08-15 01:48:21pm", "schedule_type": "STATIC", "schedule_name": "random_12", "is_biased_choice":true,"side_choice": "RIGHT", "trial_number":71,"observed_reward":0,"unobserved_reward":0},{"RT":3433,"time": "2018-08-15 01:48:24pm", "schedule_type": "STATIC", "schedule_name": "random_12", "is_biased_choice":false,"side_choice": "LEFT", "trial_number":72,"observed_reward":0,"unobserved_reward":1},{"RT":3193,"time": "2018-08-15 01:48:28pm", "schedule_type": "STATIC", "schedule_name": "random_12", "is_biased_choice":true,"side_choice": "RIGHT", "trial_number":73,"observed_reward":1,"unobserved_reward":1},{"RT":4046,"time": "2018-08-15 01:48:31pm", "schedule_type": "STATIC", "schedule_name": "random_12", "is_biased_choice":true,"side_choice": "RIGHT", "trial_number":74,"observed_reward":0,"unobserved_reward":1},{"RT":3094,"time": "2018-08-15 01:48:34pm", "schedule_type": "STATIC", "schedule_name": "random_12", "is_biased_choice":true,"side_choice": "RIGHT", "trial_number":75,"observed_reward":0,"unobserved_reward":0},{"RT":3563,"time": "2018-08-15 01:48:38pm", "schedule_type": "STATIC", "schedule_name": "random_12", "is_biased_choice":false,"side_choice": "LEFT", "trial_number":76,"observed_reward":0,"unobserved_reward":0},{"RT":3437,"time": "2018-08-15 01:48:41pm", "schedule_type": "STATIC", "schedule_name": "random_12", "is_biased_choice":true,"side_choice": "RIGHT", "trial_number":77,"observed_reward":0,"unobserved_reward":1},{"RT":3669,"time": "2018-08-15 01:48:45pm", "schedule_type": "STATIC", "schedule_name": "random_12", "is_biased_choice":true,"side_choice": "RIGHT", "trial_number":78,"observed_reward":0,"unobserved_reward":0},{"RT":3190,"time": "2018-08-15 01:48:48pm", "schedule_type": "STATIC", "schedule_name": "random_12", "is_biased_choice":true,"side_choice": "RIGHT", "trial_number":79,"observed_reward":0,"unobserved_reward":0},{"RT":3172,"time": "2018-08-15 01:48:51pm", "schedule_type": "STATIC", "schedule_name": "random_12", "is_biased_choice":true,"side_choice": "RIGHT", "trial_number":80,"observed_reward":0,"unobserved_reward":1},{"RT":3156,"time": "2018-08-15 01:48:55pm", "schedule_type": "STATIC", "schedule_name": "random_12", "is_biased_choice":true,"side_choice": "RIGHT", "trial_number":81,"observed_reward":0,"unobserved_reward":0},{"RT":3251,"time": "2018-08-15 01:48:58pm", "schedule_type": "STATIC", "schedule_name": "random_12", "is_biased_choice":true,"side_choice": "RIGHT", "trial_number":82,"observed_reward":0,"unobserved_reward":0},{"RT":3438,"time": "2018-08-15 01:49:01pm", "schedule_type": "STATIC", "schedule_name": "random_12", "is_biased_choice":true,"side_choice": "RIGHT", "trial_number":83,"observed_reward":0,"unobserved_reward":1},{"RT":4391,"time": "2018-08-15 01:49:06pm", "schedule_type": "STATIC", "schedule_name": "random_12", "is_biased_choice":true,"side_choice": "RIGHT", "trial_number":84,"observed_reward":1,"unobserved_reward":0},{"RT":3218,"time": "2018-08-15 01:49:09pm", "schedule_type": "STATIC", "schedule_name": "random_12", "is_biased_choice":true,"side_choice": "RIGHT", "trial_number":85,"observed_reward":0,"unobserved_reward":0},{"RT":3422,"time": "2018-08-15 01:49:12pm", "schedule_type": "STATIC", "schedule_name": "random_12", "is_biased_choice":false,"side_choice": "LEFT", "trial_number":86,"observed_reward":0,"unobserved_reward":1},{"RT":3156,"time": "2018-08-15 01:49:15pm", "schedule_type": "STATIC", "schedule_name": "random_12", "is_biased_choice":true,"side_choice": "RIGHT", "trial_number":87,"observed_reward":0,"unobserved_reward":0},{"RT":3250,"time": "2018-08-15 01:49:19pm", "schedule_type": "STATIC", "schedule_name": "random_12", "is_biased_choice":false,"side_choice": "LEFT", "trial_number":88,"observed_reward":0,"unobserved_reward":0},{"RT":3172,"time": "2018-08-15 01:49:22pm", "schedule_type": "STATIC", "schedule_name": "random_12", "is_biased_choice":true,"side_choice": "RIGHT", "trial_number":89,"observed_reward":0,"unobserved_reward":0},{"RT":3376,"time": "2018-08-15 01:49:25pm", "schedule_type": "STATIC", "schedule_name": "random_12", "is_biased_choice":true,"side_choice": "RIGHT", "trial_number":90,"observed_reward":0,"unobserved_reward":0},{"RT":3468,"time": "2018-08-15 01:49:29pm", "schedule_type": "STATIC", "schedule_name": "random_12", "is_biased_choice":true,"side_choice": "RIGHT", "trial_number":91,"observed_reward":1,"unobserved_reward":0},{"RT":4531,"time": "2018-08-15 01:49:33pm", "schedule_type": "STATIC", "schedule_name": "random_12", "is_biased_choice":true,"side_choice": "RIGHT", "trial_number":92,"observed_reward":1,"unobserved_reward":0},{"RT":3438,"time": "2018-08-15 01:49:37pm", "schedule_type": "STATIC", "schedule_name": "random_12", "is_biased_choice":true,"side_choice": "RIGHT", "trial_number":93,"observed_reward":1,"unobserved_reward":0},{"RT":3469,"time": "2018-08-15 01:49:40pm", "schedule_type": "STATIC", "schedule_name": "random_12", "is_biased_choice":true,"side_choice": "RIGHT", "trial_number":94,"observed_reward":1,"unobserved_reward":0},{"RT":3265,"time": "2018-08-15 01:49:43pm", "schedule_type": "STATIC", "schedule_name": "random_12", "is_biased_choice":true,"side_choice": "RIGHT", "trial_number":95,"observed_reward":1,"unobserved_reward":1},{"RT":3390,"time": "2018-08-15 01:49:47pm", "schedule_type": "STATIC", "schedule_name": "random_12", "is_biased_choice":true,"side_choice": "RIGHT", "trial_number":96,"observed_reward":0,"unobserved_reward":0},{"RT":3189,"time": "2018-08-15 01:49:50pm", "schedule_type": "STATIC", "schedule_name": "random_12", "is_biased_choice":true,"side_choice": "RIGHT", "trial_number":97,"observed_reward":1,"unobserved_reward":0},{"RT":3421,"time": "2018-08-15 01:49:53pm", "schedule_type": "STATIC", "schedule_name": "random_12", "is_biased_choice":true,"side_choice": "RIGHT", "trial_number":98,"observed_reward":1,"unobserved_reward":0},