[{"RT":4031,"time": "2018-07-29 03:45:46pm", "schedule_type": "STATIC", "schedule_name": "random_8", "is_biased_choice":true,"side_choice": "LEFT", "trial_number":0,"observed_reward":0,"unobserved_reward":0},{"RT":5417,"time": "2018-07-29 03:45:52pm", "schedule_type": "STATIC", "schedule_name": "random_8", "is_biased_choice":false,"side_choice": "RIGHT", "trial_number":1,"observed_reward":0,"unobserved_reward":1},{"RT":3452,"time": "2018-07-29 03:45:55pm", "schedule_type": "STATIC", "schedule_name": "random_8", "is_biased_choice":false,"side_choice": "RIGHT", "trial_number":2,"observed_reward":0,"unobserved_reward":0},{"RT":7283,"time": "2018-07-29 03:46:03pm", "schedule_type": "STATIC", "schedule_name": "random_8", "is_biased_choice":true,"side_choice": "LEFT", "trial_number":3,"observed_reward":1,"unobserved_reward":0},{"RT":5920,"time": "2018-07-29 03:46:09pm", "schedule_type": "STATIC", "schedule_name": "random_8", "is_biased_choice":true,"side_choice": "LEFT", "trial_number":4,"observed_reward":0,"unobserved_reward":1},{"RT":3988,"time": "2018-07-29 03:46:13pm", "schedule_type": "STATIC", "schedule_name": "random_8", "is_biased_choice":true,"side_choice": "LEFT", "trial_number":5,"observed_reward":0,"unobserved_reward":0},{"RT":2950,"time": "2018-07-29 03:46:15pm", "schedule_type": "STATIC", "schedule_name": "random_8", "is_biased_choice":false,"side_choice": "RIGHT", "trial_number":6,"observed_reward":0,"unobserved_reward":0},{"RT":3010,"time": "2018-07-29 03:46:18pm", "schedule_type": "STATIC", "schedule_name": "random_8", "is_biased_choice":false,"side_choice": "RIGHT", "trial_number":7,"observed_reward":0,"unobserved_reward":1},{"RT":3227,"time": "2018-07-29 03:46:22pm", "schedule_type": "STATIC", "schedule_name": "random_8", "is_biased_choice":false,"side_choice": "RIGHT", "trial_number":8,"observed_reward":0,"unobserved_reward":0},{"RT":3251,"time": "2018-07-29 03:46:25pm", "schedule_type": "STATIC", "schedule_name": "random_8", "is_biased_choice":false,"side_choice": "RIGHT", "trial_number":9,"observed_reward":0,"unobserved_reward":0},{"RT":2604,"time": "2018-07-29 03:46:27pm", "schedule_type": "STATIC", "schedule_name": "random_8", "is_biased_choice":true,"side_choice": "LEFT", "trial_number":10,"observed_reward":0,"unobserved_reward":0},{"RT":2611,"time": "2018-07-29 03:46:30pm", "schedule_type": "STATIC", "schedule_name": "random_8", "is_biased_choice":true,"side_choice": "LEFT", "trial_number":11,"observed_reward":0,"unobserved_reward":0},{"RT":2975,"time": "2018-07-29 03:46:33pm", "schedule_type": "STATIC", "schedule_name": "random_8", "is_biased_choice":false,"side_choice": "RIGHT", "trial_number":12,"observed_reward":1,"unobserved_reward":0},{"RT":4885,"time": "2018-07-29 03:46:38pm", "schedule_type": "STATIC", "schedule_name": "random_8", "is_biased_choice":false,"side_choice": "RIGHT", "trial_number":13,"observed_reward":1,"unobserved_reward":0},{"RT":3548,"time": "2018-07-29 03:46:42pm", "schedule_type": "STATIC", "schedule_name": "random_8", "is_biased_choice":false,"side_choice": "RIGHT", "trial_number":14,"observed_reward":0,"unobserved_reward":0},{"RT":3470,"time": "2018-07-29 03:46:45pm", "schedule_type": "STATIC", "schedule_name": "random_8", "is_biased_choice":true,"side_choice": "LEFT", "trial_number":15,"observed_reward":0,"unobserved_reward":1},{"RT":2541,"time": "2018-07-29 03:46:48pm", "schedule_type": "STATIC", "schedule_name": "random_8", "is_biased_choice":false,"side_choice": "RIGHT", "trial_number":16,"observed_reward":0,"unobserved_reward":1},{"RT":2505,"time": "2018-07-29 03:46:50pm", "schedule_type": "STATIC", "schedule_name": "random_8", "is_biased_choice":true,"side_choice": "LEFT", "trial_number":17,"observed_reward":1,"unobserved_reward":1},{"RT":2565,"time": "2018-07-29 03:46:53pm", "schedule_type": "STATIC", "schedule_name": "random_8", "is_biased_choice":true,"side_choice": "LEFT", "trial_number":18,"observed_reward":0,"unobserved_reward":0},{"RT":2928,"time": "2018-07-29 03:46:56pm", "schedule_type": "STATIC", "schedule_name": "random_8", "is_biased_choice":false,"side_choice": "RIGHT", "trial_number":19,"observed_reward":0,"unobserved_reward":0},{"RT":2492,"time": "2018-07-29 03:46:58pm", "schedule_type": "STATIC", "schedule_name": "random_8", "is_biased_choice":true,"side_choice": "LEFT", "trial_number":20,"observed_reward":1,"unobserved_reward":0},{"RT":2408,"time": "2018-07-29 03:47:00pm", "schedule_type": "STATIC", "schedule_name": "random_8", "is_biased_choice":true,"side_choice": "LEFT", "trial_number":21,"observed_reward":0,"unobserved_reward":1},{"RT":2338,"time": "2018-07-29 03:47:03pm", "schedule_type": "STATIC", "schedule_name": "random_8", "is_biased_choice":true,"side_choice": "LEFT", "trial_number":22,"observed_reward":0,"unobserved_reward":0},{"RT":2564,"time": "2018-07-29 03:47:05pm", "schedule_type": "STATIC", "schedule_name": "random_8", "is_biased_choice":false,"side_choice": "RIGHT", "trial_number":23,"observed_reward":1,"unobserved_reward":0},{"RT":2421,"time": "2018-07-29 03:47:08pm", "schedule_type": "STATIC", "schedule_name": "random_8", "is_biased_choice":false,"side_choice": "RIGHT", "trial_number":24,"observed_reward":0,"unobserved_reward":1},{"RT":2469,"time": "2018-07-29 03:47:10pm", "schedule_type": "STATIC", "schedule_name": "random_8", "is_biased_choice":false,"side_choice": "RIGHT", "trial_number":25,"observed_reward":0,"unobserved_reward":0},{"RT":2348,"time": "2018-07-29 03:47:13pm", "schedule_type": "STATIC", "schedule_name": "random_8", "is_biased_choice":true,"side_choice": "LEFT", "trial_number":26,"observed_reward":0,"unobserved_reward":1},{"RT":2794,"time": "2018-07-29 03:47:15pm", "schedule_type": "STATIC", "schedule_name": "random_8", "is_biased_choice":true,"side_choice": "LEFT", "trial_number":27,"observed_reward":0,"unobserved_reward":1},{"RT":2469,"time": "2018-07-29 03:47:18pm", "schedule_type": "STATIC", "schedule_name": "random_8", "is_biased_choice":false,"side_choice": "RIGHT", "trial_number":28,"observed_reward":0,"unobserved_reward":0},{"RT":2422,"time": "2018-07-29 03:47:20pm", "schedule_type": "STATIC", "schedule_name": "random_8", "is_biased_choice":false,"side_choice": "RIGHT", "trial_number":29,"observed_reward":0,"unobserved_reward":0},{"RT":3794,"time": "2018-07-29 03:47:24pm", "schedule_type": "STATIC", "schedule_name": "random_8", "is_biased_choice":false,"side_choice": "RIGHT", "trial_number":30,"observed_reward":0,"unobserved_reward":0},{"RT":2384,"time": "2018-07-29 03:47:26pm", "schedule_type": "STATIC", "schedule_name": "random_8", "is_biased_choice":true,"side_choice": "LEFT", "trial_number":31,"observed_reward":1,"unobserved_reward":0},{"RT":2616,"time": "2018-07-29 03:47:29pm", "schedule_type": "STATIC", "schedule_name": "random_8", "is_biased_choice":true,"side_choice": "LEFT", "trial_number":32,"observed_reward":0,"unobserved_reward":1},{"RT":2999,"time": "2018-07-29 03:47:32pm", "schedule_type": "STATIC", "schedule_name": "random_8", "is_biased_choice":false,"side_choice": "RIGHT", "trial_number":33,"observed_reward":0,"unobserved_reward":0},{"RT":2543,"time": "2018-07-29 03:47:35pm", "schedule_type": "STATIC", "schedule_name": "random_8", "is_biased_choice":true,"side_choice": "LEFT", "trial_number":34,"observed_reward":0,"unobserved_reward":0},{"RT":3349,"time": "2018-07-29 03:47:38pm", "schedule_type": "STATIC", "schedule_name": "random_8", "is_biased_choice":false,"side_choice": "RIGHT", "trial_number":35,"observed_reward":1,"unobserved_reward":0},{"RT":2398,"time": "2018-07-29 03:47:40pm", "schedule_type": "STATIC", "schedule_name": "random_8", "is_biased_choice":true,"side_choice": "LEFT", "trial_number":36,"observed_reward":0,"unobserved_reward":0},{"RT":2589,"time": "2018-07-29 03:47:43pm", "schedule_type": "STATIC", "schedule_name": "random_8", "is_biased_choice":false,"side_choice": "RIGHT", "trial_number":37,"observed_reward":1,"unobserved_reward":1},{"RT":2506,"time": "2018-07-29 03:47:45pm", "schedule_type": "STATIC", "schedule_name": "random_8", "is_biased_choice":false,"side_choice": "RIGHT", "trial_number":38,"observed_reward":1,"unobserved_reward":0},{"RT":2565,"time": "2018-07-29 03:47:48pm", "schedule_type": "STATIC", "schedule_name": "random_8", "is_biased_choice":false,"side_choice": "RIGHT", "trial_number":39,"observed_reward":0,"unobserved_reward":0},{"RT":2626,"time": "2018-07-29 03:47:51pm", "schedule_type": "STATIC", "schedule_name": "random_8", "is_biased_choice":false,"side_choice": "RIGHT", "trial_number":40,"observed_reward":0,"unobserved_reward":0},{"RT":2469,"time": "2018-07-29 03:47:53pm", "schedule_type": "STATIC", "schedule_name": "random_8", "is_biased_choice":true,"side_choice": "LEFT", "trial_number":41,"observed_reward":0,"unobserved_reward":0},{"RT":2976,"time": "2018-07-29 03:47:56pm", "schedule_type": "STATIC", "schedule_name": "random_8", "is_biased_choice":true,"side_choice": "LEFT", "trial_number":42,"observed_reward":0,"unobserved_reward":1},{"RT":2469,"time": "2018-07-29 03:47:59pm", "schedule_type": "STATIC", "schedule_name": "random_8", "is_biased_choice":false,"side_choice": "RIGHT", "trial_number":43,"observed_reward":0,"unobserved_reward":0},{"RT":2445,"time": "2018-07-29 03:48:01pm", "schedule_type": "STATIC", "schedule_name": "random_8", "is_biased_choice":true,"side_choice": "LEFT", "trial_number":44,"observed_reward":1,"unobserved_reward":0},{"RT":2396,"time": "2018-07-29 03:48:03pm", "schedule_type": "STATIC", "schedule_name": "random_8", "is_biased_choice":false,"side_choice": "RIGHT", "trial_number":45,"observed_reward":0,"unobserved_reward":0},{"RT":2348,"time": "2018-07-29 03:48:06pm", "schedule_type": "STATIC", "schedule_name": "random_8", "is_biased_choice":true,"side_choice": "LEFT", "trial_number":46,"observed_reward":0,"unobserved_reward":0},{"RT":2349,"time": "2018-07-29 03:48:08pm", "schedule_type": "STATIC", "schedule_name": "random_8", "is_biased_choice":true,"side_choice": "LEFT", "trial_number":47,"observed_reward":0,"unobserved_reward":0},{"RT":2640,"time": "2018-07-29 03:48:11pm", "schedule_type": "STATIC", "schedule_name": "random_8", "is_biased_choice":false,"side_choice": "RIGHT", "trial_number":48,"observed_reward":1,"unobserved_reward":1},{"RT":2817,"time": "2018-07-29 03:48:14pm", "schedule_type": "STATIC", "schedule_name": "random_8", "is_biased_choice":true,"side_choice": "LEFT", "trial_number":49,"observed_reward":0,"unobserved_reward":0},{"RT":2301,"time": "2018-07-29 03:48:16pm", "schedule_type": "STATIC", "schedule_name": "random_8", "is_biased_choice":false,"side_choice": "RIGHT", "trial_number":50,"observed_reward":0,"unobserved_reward":0},{"RT":2337,"time": "2018-07-29 03:48:18pm", "schedule_type": "STATIC", "schedule_name": "random_8", "is_biased_choice":false,"side_choice": "RIGHT", "trial_number":51,"observed_reward":0,"unobserved_reward":1},{"RT":2396,"time": "2018-07-29 03:48:21pm", "schedule_type": "STATIC", "schedule_name": "random_8", "is_biased_choice":false,"side_choice": "RIGHT", "trial_number":52,"observed_reward":0,"unobserved_reward":0},{"RT":2384,"time": "2018-07-29 03:48:23pm", "schedule_type": "STATIC", "schedule_name": "random_8", "is_biased_choice":false,"side_choice": "RIGHT", "trial_number":53,"observed_reward":1,"unobserved_reward":1},{"RT":3530,"time": "2018-07-29 03:48:27pm", "schedule_type": "STATIC", "schedule_name": "random_8", "is_biased_choice":false,"side_choice": "RIGHT", "trial_number":54,"observed_reward":0,"unobserved_reward":0},{"RT":2492,"time": "2018-07-29 03:48:29pm", "schedule_type": "STATIC", "schedule_name": "random_8", "is_biased_choice":true,"side_choice": "LEFT", "trial_number":55,"observed_reward":1,"unobserved_reward":0},{"RT":2613,"time": "2018-07-29 03:48:32pm", "schedule_type": "STATIC", "schedule_name": "random_8", "is_biased_choice":true,"side_choice": "LEFT", "trial_number":56,"observed_reward":0,"unobserved_reward":0},{"RT":2601,"time": "2018-07-29 03:48:34pm", "schedule_type": "STATIC", "schedule_name": "random_8", "is_biased_choice":false,"side_choice": "RIGHT", "trial_number":57,"observed_reward":1,"unobserved_reward":0},{"RT":2349,"time": "2018-07-29 03:48:37pm", "schedule_type": "STATIC", "schedule_name": "random_8", "is_biased_choice":true,"side_choice": "LEFT", "trial_number":58,"observed_reward":0,"unobserved_reward":0},{"RT":2419,"time": "2018-07-29 03:48:39pm", "schedule_type": "STATIC", "schedule_name": "random_8", "is_biased_choice":false,"side_choice": "RIGHT", "trial_number":59,"observed_reward":0,"unobserved_reward":0},{"RT":3325,"time": "2018-07-29 03:48:42pm", "schedule_type": "STATIC", "schedule_name": "random_8", "is_biased_choice":true,"side_choice": "LEFT", "trial_number":60,"observed_reward":0,"unobserved_reward":0},{"RT":2699,"time": "2018-07-29 03:48:45pm", "schedule_type": "STATIC", "schedule_name": "random_8", "is_biased_choice":false,"side_choice": "RIGHT", "trial_number":61,"observed_reward":1,"unobserved_reward":1},{"RT":3757,"time": "2018-07-29 03:48:49pm", "schedule_type": "STATIC", "schedule_name": "random_8", "is_biased_choice":false,"side_choice": "RIGHT", "trial_number":62,"observed_reward":0,"unobserved_reward":1},{"RT":2492,"time": "2018-07-29 03:48:51pm", "schedule_type": "STATIC", "schedule_name": "random_8", "is_biased_choice":false,"side_choice": "RIGHT", "trial_number":63,"observed_reward":0,"unobserved_reward":0},{"RT":2361,"time": "2018-07-29 03:48:54pm", "schedule_type": "STATIC", "schedule_name": "random_8", "is_biased_choice":false,"side_choice": "RIGHT", "trial_number":64,"observed_reward":0,"unobserved_reward":0},{"RT":2372,"time": "2018-07-29 03:48:56pm", "schedule_type": "STATIC", "schedule_name": "random_8", "is_biased_choice":false,"side_choice": "RIGHT", "trial_number":65,"observed_reward":0,"unobserved_reward":1},{"RT":2348,"time": "2018-07-29 03:48:58pm", "schedule_type": "STATIC", "schedule_name": "random_8", "is_biased_choice":true,"side_choice": "LEFT", "trial_number":66,"observed_reward":1,"unobserved_reward":0},{"RT":2408,"time": "2018-07-29 03:49:01pm", "schedule_type": "STATIC", "schedule_name": "random_8", "is_biased_choice":true,"side_choice": "LEFT", "trial_number":67,"observed_reward":0,"unobserved_reward":1},{"RT":2494,"time": "2018-07-29 03:49:03pm", "schedule_type": "STATIC", "schedule_name": "random_8", "is_biased_choice":true,"side_choice": "LEFT", "trial_number":68,"observed_reward":0,"unobserved_reward":0},{"RT":2963,"time": "2018-07-29 03:49:06pm", "schedule_type": "STATIC", "schedule_name": "random_8", "is_biased_choice":false,"side_choice": "RIGHT", "trial_number":69,"observed_reward":1,"unobserved_reward":0},{"RT":2456,"time": "2018-07-29 03:49:09pm", "schedule_type": "STATIC", "schedule_name": "random_8", "is_biased_choice":true,"side_choice": "LEFT", "trial_number":70,"observed_reward":0,"unobserved_reward":0},{"RT":2361,"time": "2018-07-29 03:49:11pm", "schedule_type": "STATIC", "schedule_name": "random_8", "is_biased_choice":false,"side_choice": "RIGHT", "trial_number":71,"observed_reward":0,"unobserved_reward":0},{"RT":2577,"time": "2018-07-29 03:49:14pm", "schedule_type": "STATIC", "schedule_name": "random_8", "is_biased_choice":false,"side_choice": "RIGHT", "trial_number":72,"observed_reward":0,"unobserved_reward":0},{"RT":2371,"time": "2018-07-29 03:49:16pm", "schedule_type": "STATIC", "schedule_name": "random_8", "is_biased_choice":true,"side_choice": "LEFT", "trial_number":73,"observed_reward":0,"unobserved_reward":0},{"RT":2554,"time": "2018-07-29 03:49:18pm", "schedule_type": "STATIC", "schedule_name": "random_8", "is_biased_choice":true,"side_choice": "LEFT", "trial_number":74,"observed_reward":1,"unobserved_reward":0},{"RT":2637,"time": "2018-07-29 03:49:21pm", "schedule_type": "STATIC", "schedule_name": "random_8", "is_biased_choice":true,"side_choice": "LEFT", "trial_number":75,"observed_reward":0,"unobserved_reward":0},{"RT":2482,"time": "2018-07-29 03:49:24pm", "schedule_type": "STATIC", "schedule_name": "random_8", "is_biased_choice":false,"side_choice": "RIGHT", "trial_number":76,"observed_reward":0,"unobserved_reward":1},{"RT":2348,"time": "2018-07-29 03:49:26pm", "schedule_type": "STATIC", "schedule_name": "random_8", "is_biased_choice":false,"side_choice": "RIGHT", "trial_number":77,"observed_reward":0,"unobserved_reward":0},{"RT":2372,"time": "2018-07-29 03:49:28pm", "schedule_type": "STATIC", "schedule_name": "random_8", "is_biased_choice":true,"side_choice": "LEFT", "trial_number":78,"observed_reward":0,"unobserved_reward":1},{"RT":2457,"time": "2018-07-29 03:49:31pm", "schedule_type": "STATIC", "schedule_name": "random_8", "is_biased_choice":true,"side_choice": "LEFT", "trial_number":79,"observed_reward":0,"unobserved_reward":0},{"RT":2445,"time": "2018-07-29 03:49:33pm", "schedule_type": "STATIC", "schedule_name": "random_8", "is_biased_choice":true,"side_choice": "LEFT", "trial_number":80,"observed_reward":1,"unobserved_reward":0},{"RT":3467,"time": "2018-07-29 03:49:37pm", "schedule_type": "STATIC", "schedule_name": "random_8", "is_biased_choice":true,"side_choice": "LEFT", "trial_number":81,"observed_reward":0,"unobserved_reward":0},{"RT":2518,"time": "2018-07-29 03:49:39pm", "schedule_type": "STATIC", "schedule_name": "random_8", "is_biased_choice":false,"side_choice": "RIGHT", "trial_number":82,"observed_reward":1,"unobserved_reward":0},{"RT":2481,"time": "2018-07-29 03:49:42pm", "schedule_type": "STATIC", "schedule_name": "random_8", "is_biased_choice":false,"side_choice": "RIGHT", "trial_number":83,"observed_reward":0,"unobserved_reward":0},{"RT":2625,"time": "2018-07-29 03:49:44pm", "schedule_type": "STATIC", "schedule_name": "random_8", "is_biased_choice":true,"side_choice": "LEFT", "trial_number":84,"observed_reward":0,"unobserved_reward":0},{"RT":2396,"time": "2018-07-29 03:49:47pm", "schedule_type": "STATIC", "schedule_name": "random_8", "is_biased_choice":true,"side_choice": "LEFT", "trial_number":85,"observed_reward":0,"unobserved_reward":0},{"RT":2410,"time": "2018-07-29 03:49:49pm", "schedule_type": "STATIC", "schedule_name": "random_8", "is_biased_choice":false,"side_choice": "RIGHT", "trial_number":86,"observed_reward":0,"unobserved_reward":0},{"RT":2396,"time": "2018-07-29 03:49:52pm", "schedule_type": "STATIC", "schedule_name": "random_8", "is_biased_choice":false,"side_choice": "RIGHT", "trial_number":87,"observed_reward":0,"unobserved_reward":0},{"RT":2456,"time": "2018-07-29 03:49:54pm", "schedule_type": "STATIC", "schedule_name": "random_8", "is_biased_choice":false,"side_choice": "RIGHT", "trial_number":88,"observed_reward":0,"unobserved_reward":0},{"RT":2289,"time": "2018-07-29 03:49:56pm", "schedule_type": "STATIC", "schedule_name": "random_8", "is_biased_choice":true,"side_choice": "LEFT", "trial_number":89,"observed_reward":0,"unobserved_reward":0},{"RT":2287,"time": "2018-07-29 03:49:59pm", "schedule_type": "STATIC", "schedule_name": "random_8", "is_biased_choice":true,"side_choice": "LEFT", "trial_number":90,"observed_reward":1,"unobserved_reward":0},{"RT":2387,"time": "2018-07-29 03:50:01pm", "schedule_type": "STATIC", "schedule_name": "random_8", "is_biased_choice":true,"side_choice": "LEFT", "trial_number":91,"observed_reward":1,"unobserved_reward":0},{"RT":2371,"time": "2018-07-29 03:50:03pm", "schedule_type": "STATIC", "schedule_name": "random_8", "is_biased_choice":false,"side_choice": "RIGHT", "trial_number":92,"observed_reward":0,"unobserved_reward":0},{"RT":2372,"time": "2018-07-29 03:50:06pm", "schedule_type": "STATIC", "schedule_name": "random_8", "is_biased_choice":true,"side_choice": "LEFT", "trial_number":93,"observed_reward":0,"unobserved_reward":0},{"RT":3011,"time": "2018-07-29 03:50:09pm", "schedule_type": "STATIC", "schedule_name": "random_8", "is_biased_choice":false,"side_choice": "RIGHT", "trial_number":94,"observed_reward":1,"unobserved_reward":0},{"RT":2384,"time": "2018-07-29 03:50:11pm", "schedule_type": "STATIC", "schedule_name": "random_8", "is_biased_choice":false,"side_choice": "RIGHT", "trial_number":95,"observed_reward":0,"unobserved_reward":0},{"RT":2348,"time": "2018-07-29 03:50:13pm", "schedule_type": "STATIC", "schedule_name": "random_8", "is_biased_choice":true,"side_choice": "LEFT", "trial_number":96,"observed_reward":1,"unobserved_reward":1},{"RT":2313,"time": "2018-07-29 03:50:16pm", "schedule_type": "STATIC", "schedule_name": "random_8", "is_biased_choice":true,"side_choice": "LEFT", "trial_number":97,"observed_reward":0,"unobserved_reward":1},{"RT":2492,"time": "2018-07-29 03:50:18pm", "schedule_type": "STATIC", "schedule_name": "random_8", "is_biased_choice":true,"side_choice": "LEFT", "trial_number":98,"observed_reward":0,"unobserved_reward":0},