trial_number, time, schedule_type, schedule_name, is_biased_choice, side_choice, RT, observed_reward, unobserved_reward, biased_reward, unbiased_reward
0,2018-08-15 01:42:52pm, STATIC, random_8, true, RIGHT, 3582, 0, 0, 0, 0
1,2018-08-15 01:43:15pm, STATIC, random_8, false, LEFT, 23349, 0, 1, 1, 0
2,2018-08-15 01:43:29pm, STATIC, random_8, true, RIGHT, 14308, 0, 0, 0, 0
3,2018-08-15 01:43:33pm, STATIC, random_8, false, LEFT, 3624, 0, 1, 1, 0
4,2018-08-15 01:43:37pm, STATIC, random_8, true, RIGHT, 3163, 0, 1, 0, 1
5,2018-08-15 01:43:40pm, STATIC, random_8, false, LEFT, 3745, 0, 0, 0, 0
6,2018-08-15 01:43:43pm, STATIC, random_8, true, RIGHT, 3372, 0, 0, 0, 0
7,2018-08-15 01:44:27pm, STATIC, random_8, false, LEFT, 43418, 0, 1, 1, 0
8,2018-08-15 01:44:46pm, STATIC, random_8, false, LEFT, 18783, 0, 0, 0, 0
9,2018-08-15 01:45:19pm, STATIC, random_8, false, LEFT, 33574, 0, 0, 0, 0
10,2018-08-15 01:45:25pm, STATIC, random_8, true, RIGHT, 4168, 0, 0, 0, 0
11,2018-08-15 01:45:28pm, STATIC, random_8, false, LEFT, 5010, 0, 0, 0, 0
12,2018-08-15 01:45:32pm, STATIC, random_8, false, LEFT, 3672, 1, 0, 0, 1
13,2018-08-15 01:45:36pm, STATIC, random_8, false, LEFT, 4310, 1, 0, 0, 1
14,2018-08-15 01:45:41pm, STATIC, random_8, false, LEFT, 4530, 0, 0, 0, 0
15,2018-08-15 01:45:44pm, STATIC, random_8, true, RIGHT, 3339, 0, 1, 0, 1
16,2018-08-15 01:45:48pm, STATIC, random_8, false, LEFT, 3920, 0, 1, 1, 0
17,2018-08-15 01:45:51pm, STATIC, random_8, true, RIGHT, 2848, 1, 1, 1, 1
18,2018-08-15 01:45:54pm, STATIC, random_8, false, LEFT, 3250, 0, 0, 0, 0
19,2018-08-15 01:45:57pm, STATIC, random_8, true, RIGHT, 2658, 0, 0, 0, 0
20,2018-08-15 01:46:00pm, STATIC, random_8, false, LEFT, 3665, 0, 1, 1, 0
21,2018-08-15 01:46:03pm, STATIC, random_8, true, RIGHT, 2469, 0, 1, 0, 1
22,2018-08-15 01:46:06pm, STATIC, random_8, false, LEFT, 3356, 0, 0, 0, 0
23,2018-08-15 01:46:16pm, STATIC, random_8, false, LEFT, 9347, 1, 0, 0, 1
24,2018-08-15 01:46:21pm, STATIC, random_8, true, RIGHT, 5381, 1, 0, 1, 0
25,2018-08-15 01:46:26pm, STATIC, random_8, true, RIGHT, 3368, 0, 0, 0, 0
26,2018-08-15 01:46:28pm, STATIC, random_8, false, LEFT, 4213, 1, 0, 0, 1
27,2018-08-15 01:46:33pm, STATIC, random_8, false, LEFT, 4035, 1, 0, 0, 1
28,2018-08-15 01:46:36pm, STATIC, random_8, true, RIGHT, 3507, 0, 0, 0, 0
29,2018-08-15 01:46:40pm, STATIC, random_8, false, LEFT, 3882, 0, 0, 0, 0
30,2018-08-15 01:46:44pm, STATIC, random_8, true, RIGHT, 3975, 0, 0, 0, 0
31,2018-08-15 01:46:47pm, STATIC, random_8, false, LEFT, 2785, 0, 1, 1, 0
32,2018-08-15 01:46:49pm, STATIC, random_8, true, RIGHT, 2567, 0, 1, 0, 1
33,2018-08-15 01:46:52pm, STATIC, random_8, false, LEFT, 3024, 0, 0, 0, 0
34,2018-08-15 01:46:55pm, STATIC, random_8, true, RIGHT, 2841, 0, 0, 0, 0
35,2018-08-15 01:46:58pm, STATIC, random_8, true, RIGHT, 2893, 0, 1, 0, 1
36,2018-08-15 01:47:01pm, STATIC, random_8, false, LEFT, 2639, 0, 0, 0, 0
37,2018-08-15 01:47:04pm, STATIC, random_8, false, LEFT, 2782, 1, 1, 1, 1
38,2018-08-15 01:47:06pm, STATIC, random_8, true, RIGHT, 2832, 0, 1, 0, 1
39,2018-08-15 01:47:09pm, STATIC, random_8, false, LEFT, 2539, 0, 0, 0, 0
40,2018-08-15 01:47:12pm, STATIC, random_8, true, RIGHT, 2592, 0, 0, 0, 0
41,2018-08-15 01:47:14pm, STATIC, random_8, false, LEFT, 2934, 0, 0, 0, 0
42,2018-08-15 01:47:18pm, STATIC, random_8, false, LEFT, 3122, 1, 0, 0, 1
43,2018-08-15 01:47:20pm, STATIC, random_8, false, LEFT, 2963, 0, 0, 0, 0
44,2018-08-15 01:47:23pm, STATIC, random_8, false, LEFT, 2587, 0, 1, 1, 0
45,2018-08-15 01:47:27pm, STATIC, random_8, true, RIGHT, 3065, 0, 0, 0, 0
46,2018-08-15 01:47:30pm, STATIC, random_8, false, LEFT, 3672, 0, 0, 0, 0
47,2018-08-15 01:48:01pm, STATIC, random_8, false, LEFT, 31114, 0, 0, 0, 0
48,2018-08-15 01:48:03pm, STATIC, random_8, false, LEFT, 2618, 1, 1, 1, 1
49,2018-08-15 01:48:06pm, STATIC, random_8, false, LEFT, 2565, 0, 0, 0, 0
50,2018-08-15 01:48:08pm, STATIC, random_8, false, LEFT, 2499, 0, 0, 0, 0
51,2018-08-15 01:48:11pm, STATIC, random_8, false, LEFT, 2498, 0, 1, 1, 0
52,2018-08-15 01:48:14pm, STATIC, random_8, true, RIGHT, 2617, 0, 0, 0, 0
53,2018-08-15 01:48:16pm, STATIC, random_8, false, LEFT, 2481, 1, 1, 1, 1
54,2018-08-15 01:48:19pm, STATIC, random_8, true, RIGHT, 2612, 0, 0, 0, 0
55,2018-08-15 01:48:22pm, STATIC, random_8, false, LEFT, 2859, 0, 1, 1, 0
56,2018-08-15 01:48:24pm, STATIC, random_8, true, RIGHT, 2631, 0, 0, 0, 0
57,2018-08-15 01:48:28pm, STATIC, random_8, false, LEFT, 2754, 1, 0, 0, 1
58,2018-08-15 01:48:32pm, STATIC, random_8, false, LEFT, 4633, 0, 0, 0, 0
59,2018-08-15 01:48:46pm, STATIC, random_8, true, RIGHT, 14442, 0, 0, 0, 0
60,2018-08-15 01:48:49pm, STATIC, random_8, false, LEFT, 3193, 0, 0, 0, 0
61,2018-08-15 01:48:52pm, STATIC, random_8, false, LEFT, 2879, 1, 1, 1, 1
62,2018-08-15 01:48:56pm, STATIC, random_8, false, LEFT, 3741, 0, 1, 1, 0
63,2018-08-15 01:48:59pm, STATIC, random_8, true, RIGHT, 2585, 0, 0, 0, 0
64,2018-08-15 01:49:01pm, STATIC, random_8, false, LEFT, 2505, 0, 0, 0, 0
65,2018-08-15 01:49:05pm, STATIC, random_8, true, RIGHT, 3415, 1, 0, 1, 0
66,2018-08-15 01:49:08pm, STATIC, random_8, true, RIGHT, 3233, 1, 0, 1, 0
67,2018-08-15 01:49:10pm, STATIC, random_8, false, LEFT, 2618, 1, 0, 0, 1
68,2018-08-15 01:49:13pm, STATIC, random_8, false, LEFT, 2600, 0, 0, 0, 0
69,2018-08-15 01:49:15pm, STATIC, random_8, true, RIGHT, 2586, 0, 1, 0, 1
70,2018-08-15 01:49:18pm, STATIC, random_8, false, LEFT, 2608, 0, 0, 0, 0
71,2018-08-15 01:49:21pm, STATIC, random_8, true, RIGHT, 3329, 0, 0, 0, 0
72,2018-08-15 01:49:24pm, STATIC, random_8, false, LEFT, 2613, 0, 0, 0, 0
73,2018-08-15 01:49:29pm, STATIC, random_8, true, RIGHT, 3219, 0, 0, 0, 0
74,2018-08-15 01:49:31pm, STATIC, random_8, false, LEFT, 3913, 0, 1, 1, 0
75,2018-08-15 01:49:35pm, STATIC, random_8, true, RIGHT, 3675, 0, 0, 0, 0
76,2018-08-15 01:49:37pm, STATIC, random_8, false, LEFT, 2536, 0, 1, 1, 0
77,2018-08-15 01:49:40pm, STATIC, random_8, false, LEFT, 2621, 0, 0, 0, 0
78,2018-08-15 01:49:43pm, STATIC, random_8, false, LEFT, 2576, 1, 0, 0, 1
79,2018-08-15 01:49:45pm, STATIC, random_8, false, LEFT, 2697, 0, 0, 0, 0
80,2018-08-15 01:49:48pm, STATIC, random_8, true, RIGHT, 2480, 1, 0, 1, 0
81,2018-08-15 01:49:50pm, STATIC, random_8, true, RIGHT, 2595, 0, 0, 0, 0
82,2018-08-15 01:49:53pm, STATIC, random_8, false, LEFT, 2834, 1, 0, 0, 1
83,2018-08-15 01:49:56pm, STATIC, random_8, false, LEFT, 3002, 0, 0, 0, 0
84,2018-08-15 01:49:59pm, STATIC, random_8, true, RIGHT, 2582, 0, 0, 0, 0
85,2018-08-15 01:50:01pm, STATIC, random_8, true, RIGHT, 2451, 0, 0, 0, 0
86,2018-08-15 01:50:04pm, STATIC, random_8, false, LEFT, 2765, 0, 0, 0, 0
87,2018-08-15 01:50:07pm, STATIC, random_8, false, LEFT, 2735, 0, 0, 0, 0
88,2018-08-15 01:50:09pm, STATIC, random_8, true, RIGHT, 2401, 0, 0, 0, 0
89,2018-08-15 01:50:13pm, STATIC, random_8, false, LEFT, 3526, 0, 0, 0, 0
90,2018-08-15 01:50:15pm, STATIC, random_8, true, RIGHT, 2752, 1, 0, 1, 0
91,2018-08-15 01:50:19pm, STATIC, random_8, false, LEFT, 3152, 0, 1, 1, 0
92,2018-08-15 01:50:21pm, STATIC, random_8, true, RIGHT, 2526, 0, 0, 0, 0
93,2018-08-15 01:50:24pm, STATIC, random_8, false, LEFT, 2680, 0, 0, 0, 0
94,2018-08-15 01:50:26pm, STATIC, random_8, true, RIGHT, 2594, 0, 1, 0, 1
95,2018-08-15 01:50:31pm, STATIC, random_8, false, LEFT, 4298, 0, 0, 0, 0
96,2018-08-15 01:50:33pm, STATIC, random_8, true, RIGHT, 2687, 1, 1, 1, 1
97,2018-08-15 01:50:36pm, STATIC, random_8, false, LEFT, 2644, 1, 0, 0, 1
98,2018-08-15 01:50:39pm, STATIC, random_8, false, LEFT, 2923, 0, 0, 0, 0
