[{"RT":1001,"time": "2018-08-15 03:27:15pm", "schedule_type": "STATIC", "schedule_name": "random_8", "is_biased_choice":false,"side_choice": "LEFT", "trial_number":0,"observed_reward":0,"unobserved_reward":0},{"RT":5479,"time": "2018-08-15 03:27:21pm", "schedule_type": "STATIC", "schedule_name": "random_8", "is_biased_choice":true,"side_choice": "RIGHT", "trial_number":1,"observed_reward":1,"unobserved_reward":0},{"RT":3176,"time": "2018-08-15 03:27:24pm", "schedule_type": "STATIC", "schedule_name": "random_8", "is_biased_choice":false,"side_choice": "LEFT", "trial_number":2,"observed_reward":0,"unobserved_reward":0},{"RT":2641,"time": "2018-08-15 03:27:27pm", "schedule_type": "STATIC", "schedule_name": "random_8", "is_biased_choice":true,"side_choice": "RIGHT", "trial_number":3,"observed_reward":1,"unobserved_reward":0},{"RT":2671,"time": "2018-08-15 03:27:29pm", "schedule_type": "STATIC", "schedule_name": "random_8", "is_biased_choice":true,"side_choice": "RIGHT", "trial_number":4,"observed_reward":0,"unobserved_reward":1},{"RT":2447,"time": "2018-08-15 03:27:32pm", "schedule_type": "STATIC", "schedule_name": "random_8", "is_biased_choice":true,"side_choice": "RIGHT", "trial_number":5,"observed_reward":0,"unobserved_reward":0},{"RT":2905,"time": "2018-08-15 03:27:35pm", "schedule_type": "STATIC", "schedule_name": "random_8", "is_biased_choice":true,"side_choice": "RIGHT", "trial_number":6,"observed_reward":0,"unobserved_reward":0},{"RT":3760,"time": "2018-08-15 03:27:38pm", "schedule_type": "STATIC", "schedule_name": "random_8", "is_biased_choice":true,"side_choice": "RIGHT", "trial_number":7,"observed_reward":1,"unobserved_reward":0},{"RT":2720,"time": "2018-08-15 03:27:41pm", "schedule_type": "STATIC", "schedule_name": "random_8", "is_biased_choice":true,"side_choice": "RIGHT", "trial_number":8,"observed_reward":0,"unobserved_reward":0},{"RT":6103,"time": "2018-08-15 03:27:47pm", "schedule_type": "STATIC", "schedule_name": "random_8", "is_biased_choice":false,"side_choice": "LEFT", "trial_number":9,"observed_reward":0,"unobserved_reward":0},{"RT":2328,"time": "2018-08-15 03:27:50pm", "schedule_type": "STATIC", "schedule_name": "random_8", "is_biased_choice":true,"side_choice": "RIGHT", "trial_number":10,"observed_reward":0,"unobserved_reward":0},{"RT":2312,"time": "2018-08-15 03:27:52pm", "schedule_type": "STATIC", "schedule_name": "random_8", "is_biased_choice":true,"side_choice": "RIGHT", "trial_number":11,"observed_reward":0,"unobserved_reward":0},{"RT":2208,"time": "2018-08-15 03:27:54pm", "schedule_type": "STATIC", "schedule_name": "random_8", "is_biased_choice":true,"side_choice": "RIGHT", "trial_number":12,"observed_reward":0,"unobserved_reward":1},{"RT":2208,"time": "2018-08-15 03:27:56pm", "schedule_type": "STATIC", "schedule_name": "random_8", "is_biased_choice":true,"side_choice": "RIGHT", "trial_number":13,"observed_reward":0,"unobserved_reward":1},{"RT":2199,"time": "2018-08-15 03:27:58pm", "schedule_type": "STATIC", "schedule_name": "random_8", "is_biased_choice":false,"side_choice": "LEFT", "trial_number":14,"observed_reward":0,"unobserved_reward":0},{"RT":2121,"time": "2018-08-15 03:28:01pm", "schedule_type": "STATIC", "schedule_name": "random_8", "is_biased_choice":true,"side_choice": "RIGHT", "trial_number":15,"observed_reward":0,"unobserved_reward":1},{"RT":2200,"time": "2018-08-15 03:28:03pm", "schedule_type": "STATIC", "schedule_name": "random_8", "is_biased_choice":true,"side_choice": "RIGHT", "trial_number":16,"observed_reward":1,"unobserved_reward":0},{"RT":2392,"time": "2018-08-15 03:28:05pm", "schedule_type": "STATIC", "schedule_name": "random_8", "is_biased_choice":false,"side_choice": "LEFT", "trial_number":17,"observed_reward":1,"unobserved_reward":1},{"RT":2519,"time": "2018-08-15 03:28:08pm", "schedule_type": "STATIC", "schedule_name": "random_8", "is_biased_choice":true,"side_choice": "RIGHT", "trial_number":18,"observed_reward":0,"unobserved_reward":0},{"RT":2208,"time": "2018-08-15 03:28:10pm", "schedule_type": "STATIC", "schedule_name": "random_8", "is_biased_choice":false,"side_choice": "LEFT", "trial_number":19,"observed_reward":0,"unobserved_reward":0},{"RT":2243,"time": "2018-08-15 03:28:12pm", "schedule_type": "STATIC", "schedule_name": "random_8", "is_biased_choice":false,"side_choice": "LEFT", "trial_number":20,"observed_reward":0,"unobserved_reward":1},{"RT":2240,"time": "2018-08-15 03:28:14pm", "schedule_type": "STATIC", "schedule_name": "random_8", "is_biased_choice":false,"side_choice": "LEFT", "trial_number":21,"observed_reward":1,"unobserved_reward":0},{"RT":2512,"time": "2018-08-15 03:28:17pm", "schedule_type": "STATIC", "schedule_name": "random_8", "is_biased_choice":false,"side_choice": "LEFT", "trial_number":22,"observed_reward":0,"unobserved_reward":0},{"RT":2160,"time": "2018-08-15 03:28:19pm", "schedule_type": "STATIC", "schedule_name": "random_8", "is_biased_choice":false,"side_choice": "LEFT", "trial_number":23,"observed_reward":1,"unobserved_reward":0},{"RT":2200,"time": "2018-08-15 03:28:21pm", "schedule_type": "STATIC", "schedule_name": "random_8", "is_biased_choice":false,"side_choice": "LEFT", "trial_number":24,"observed_reward":0,"unobserved_reward":1},{"RT":2176,"time": "2018-08-15 03:28:23pm", "schedule_type": "STATIC", "schedule_name": "random_8", "is_biased_choice":false,"side_choice": "LEFT", "trial_number":25,"observed_reward":0,"unobserved_reward":0},{"RT":2167,"time": "2018-08-15 03:28:26pm", "schedule_type": "STATIC", "schedule_name": "random_8", "is_biased_choice":false,"side_choice": "LEFT", "trial_number":26,"observed_reward":1,"unobserved_reward":0},{"RT":2425,"time": "2018-08-15 03:28:28pm", "schedule_type": "STATIC", "schedule_name": "random_8", "is_biased_choice":false,"side_choice": "LEFT", "trial_number":27,"observed_reward":1,"unobserved_reward":0},{"RT":2135,"time": "2018-08-15 03:28:30pm", "schedule_type": "STATIC", "schedule_name": "random_8", "is_biased_choice":false,"side_choice": "LEFT", "trial_number":28,"observed_reward":0,"unobserved_reward":0},{"RT":2152,"time": "2018-08-15 03:28:32pm", "schedule_type": "STATIC", "schedule_name": "random_8", "is_biased_choice":false,"side_choice": "LEFT", "trial_number":29,"observed_reward":0,"unobserved_reward":0},{"RT":2312,"time": "2018-08-15 03:28:35pm", "schedule_type": "STATIC", "schedule_name": "random_8", "is_biased_choice":false,"side_choice": "LEFT", "trial_number":30,"observed_reward":0,"unobserved_reward":0},{"RT":2344,"time": "2018-08-15 03:28:37pm", "schedule_type": "STATIC", "schedule_name": "random_8", "is_biased_choice":true,"side_choice": "RIGHT", "trial_number":31,"observed_reward":1,"unobserved_reward":0},{"RT":2312,"time": "2018-08-15 03:28:39pm", "schedule_type": "STATIC", "schedule_name": "random_8", "is_biased_choice":true,"side_choice": "RIGHT", "trial_number":32,"observed_reward":0,"unobserved_reward":1},{"RT":2208,"time": "2018-08-15 03:28:42pm", "schedule_type": "STATIC", "schedule_name": "random_8", "is_biased_choice":true,"side_choice": "RIGHT", "trial_number":33,"observed_reward":0,"unobserved_reward":0},{"RT":3168,"time": "2018-08-15 03:28:45pm", "schedule_type": "STATIC", "schedule_name": "random_8", "is_biased_choice":false,"side_choice": "LEFT", "trial_number":34,"observed_reward":0,"unobserved_reward":0},{"RT":2271,"time": "2018-08-15 03:28:47pm", "schedule_type": "STATIC", "schedule_name": "random_8", "is_biased_choice":true,"side_choice": "RIGHT", "trial_number":35,"observed_reward":0,"unobserved_reward":1},{"RT":2265,"time": "2018-08-15 03:28:49pm", "schedule_type": "STATIC", "schedule_name": "random_8", "is_biased_choice":false,"side_choice": "LEFT", "trial_number":36,"observed_reward":0,"unobserved_reward":0},{"RT":2519,"time": "2018-08-15 03:28:52pm", "schedule_type": "STATIC", "schedule_name": "random_8", "is_biased_choice":false,"side_choice": "LEFT", "trial_number":37,"observed_reward":1,"unobserved_reward":1},{"RT":2272,"time": "2018-08-15 03:28:54pm", "schedule_type": "STATIC", "schedule_name": "random_8", "is_biased_choice":true,"side_choice": "RIGHT", "trial_number":38,"observed_reward":0,"unobserved_reward":1},{"RT":2273,"time": "2018-08-15 03:28:56pm", "schedule_type": "STATIC", "schedule_name": "random_8", "is_biased_choice":false,"side_choice": "LEFT", "trial_number":39,"observed_reward":0,"unobserved_reward":0},{"RT":2544,"time": "2018-08-15 03:28:59pm", "schedule_type": "STATIC", "schedule_name": "random_8", "is_biased_choice":false,"side_choice": "LEFT", "trial_number":40,"observed_reward":0,"unobserved_reward":0},{"RT":2248,"time": "2018-08-15 03:29:01pm", "schedule_type": "STATIC", "schedule_name": "random_8", "is_biased_choice":true,"side_choice": "RIGHT", "trial_number":41,"observed_reward":0,"unobserved_reward":0},{"RT":2191,"time": "2018-08-15 03:29:03pm", "schedule_type": "STATIC", "schedule_name": "random_8", "is_biased_choice":false,"side_choice": "LEFT", "trial_number":42,"observed_reward":1,"unobserved_reward":0},{"RT":2472,"time": "2018-08-15 03:29:06pm", "schedule_type": "STATIC", "schedule_name": "random_8", "is_biased_choice":false,"side_choice": "LEFT", "trial_number":43,"observed_reward":0,"unobserved_reward":0},{"RT":2383,"time": "2018-08-15 03:29:08pm", "schedule_type": "STATIC", "schedule_name": "random_8", "is_biased_choice":false,"side_choice": "LEFT", "trial_number":44,"observed_reward":0,"unobserved_reward":1},{"RT":2176,"time": "2018-08-15 03:29:10pm", "schedule_type": "STATIC", "schedule_name": "random_8", "is_biased_choice":false,"side_choice": "LEFT", "trial_number":45,"observed_reward":0,"unobserved_reward":0},{"RT":2447,"time": "2018-08-15 03:29:14pm", "schedule_type": "STATIC", "schedule_name": "random_8", "is_biased_choice":false,"side_choice": "LEFT", "trial_number":46,"observed_reward":0,"unobserved_reward":0},{"RT":2751,"time": "2018-08-15 03:29:16pm", "schedule_type": "STATIC", "schedule_name": "random_8", "is_biased_choice":false,"side_choice": "LEFT", "trial_number":47,"observed_reward":0,"unobserved_reward":0},{"RT":2201,"time": "2018-08-15 03:29:18pm", "schedule_type": "STATIC", "schedule_name": "random_8", "is_biased_choice":false,"side_choice": "LEFT", "trial_number":48,"observed_reward":1,"unobserved_reward":1},{"RT":2263,"time": "2018-08-15 03:29:20pm", "schedule_type": "STATIC", "schedule_name": "random_8", "is_biased_choice":false,"side_choice": "LEFT", "trial_number":49,"observed_reward":0,"unobserved_reward":0},{"RT":2208,"time": "2018-08-15 03:29:22pm", "schedule_type": "STATIC", "schedule_name": "random_8", "is_biased_choice":false,"side_choice": "LEFT", "trial_number":50,"observed_reward":0,"unobserved_reward":0},{"RT":2361,"time": "2018-08-15 03:29:25pm", "schedule_type": "STATIC", "schedule_name": "random_8", "is_biased_choice":false,"side_choice": "LEFT", "trial_number":51,"observed_reward":0,"unobserved_reward":1},{"RT":2319,"time": "2018-08-15 03:29:27pm", "schedule_type": "STATIC", "schedule_name": "random_8", "is_biased_choice":false,"side_choice": "LEFT", "trial_number":52,"observed_reward":0,"unobserved_reward":0},{"RT":2456,"time": "2018-08-15 03:29:29pm", "schedule_type": "STATIC", "schedule_name": "random_8", "is_biased_choice":true,"side_choice": "RIGHT", "trial_number":53,"observed_reward":1,"unobserved_reward":1},{"RT":2344,"time": "2018-08-15 03:29:32pm", "schedule_type": "STATIC", "schedule_name": "random_8", "is_biased_choice":true,"side_choice": "RIGHT", "trial_number":54,"observed_reward":0,"unobserved_reward":0},{"RT":2296,"time": "2018-08-15 03:29:34pm", "schedule_type": "STATIC", "schedule_name": "random_8", "is_biased_choice":true,"side_choice": "RIGHT", "trial_number":55,"observed_reward":1,"unobserved_reward":0},{"RT":2600,"time": "2018-08-15 03:29:37pm", "schedule_type": "STATIC", "schedule_name": "random_8", "is_biased_choice":true,"side_choice": "RIGHT", "trial_number":56,"observed_reward":0,"unobserved_reward":0},{"RT":2528,"time": "2018-08-15 03:29:39pm", "schedule_type": "STATIC", "schedule_name": "random_8", "is_biased_choice":true,"side_choice": "RIGHT", "trial_number":57,"observed_reward":0,"unobserved_reward":1},{"RT":2223,"time": "2018-08-15 03:29:41pm", "schedule_type": "STATIC", "schedule_name": "random_8", "is_biased_choice":true,"side_choice": "RIGHT", "trial_number":58,"observed_reward":0,"unobserved_reward":0},{"RT":2425,"time": "2018-08-15 03:29:44pm", "schedule_type": "STATIC", "schedule_name": "random_8", "is_biased_choice":true,"side_choice": "RIGHT", "trial_number":59,"observed_reward":0,"unobserved_reward":0},{"RT":2400,"time": "2018-08-15 03:29:46pm", "schedule_type": "STATIC", "schedule_name": "random_8", "is_biased_choice":true,"side_choice": "RIGHT", "trial_number":60,"observed_reward":0,"unobserved_reward":0},{"RT":2231,"time": "2018-08-15 03:29:48pm", "schedule_type": "STATIC", "schedule_name": "random_8", "is_biased_choice":true,"side_choice": "RIGHT", "trial_number":61,"observed_reward":1,"unobserved_reward":1},{"RT":2264,"time": "2018-08-15 03:29:51pm", "schedule_type": "STATIC", "schedule_name": "random_8", "is_biased_choice":true,"side_choice": "RIGHT", "trial_number":62,"observed_reward":1,"unobserved_reward":0},{"RT":2704,"time": "2018-08-15 03:29:53pm", "schedule_type": "STATIC", "schedule_name": "random_8", "is_biased_choice":true,"side_choice": "RIGHT", "trial_number":63,"observed_reward":0,"unobserved_reward":0},{"RT":2600,"time": "2018-08-15 03:29:56pm", "schedule_type": "STATIC", "schedule_name": "random_8", "is_biased_choice":false,"side_choice": "LEFT", "trial_number":64,"observed_reward":0,"unobserved_reward":0},{"RT":2392,"time": "2018-08-15 03:29:58pm", "schedule_type": "STATIC", "schedule_name": "random_8", "is_biased_choice":true,"side_choice": "RIGHT", "trial_number":65,"observed_reward":1,"unobserved_reward":0},{"RT":2191,"time": "2018-08-15 03:30:00pm", "schedule_type": "STATIC", "schedule_name": "random_8", "is_biased_choice":false,"side_choice": "LEFT", "trial_number":66,"observed_reward":0,"unobserved_reward":1},{"RT":2265,"time": "2018-08-15 03:30:03pm", "schedule_type": "STATIC", "schedule_name": "random_8", "is_biased_choice":true,"side_choice": "RIGHT", "trial_number":67,"observed_reward":0,"unobserved_reward":1},{"RT":2368,"time": "2018-08-15 03:30:05pm", "schedule_type": "STATIC", "schedule_name": "random_8", "is_biased_choice":false,"side_choice": "LEFT", "trial_number":68,"observed_reward":0,"unobserved_reward":0},{"RT":2359,"time": "2018-08-15 03:30:07pm", "schedule_type": "STATIC", "schedule_name": "random_8", "is_biased_choice":true,"side_choice": "RIGHT", "trial_number":69,"observed_reward":0,"unobserved_reward":1},{"RT":2240,"time": "2018-08-15 03:30:10pm", "schedule_type": "STATIC", "schedule_name": "random_8", "is_biased_choice":false,"side_choice": "LEFT", "trial_number":70,"observed_reward":0,"unobserved_reward":0},{"RT":2216,"time": "2018-08-15 03:30:12pm", "schedule_type": "STATIC", "schedule_name": "random_8", "is_biased_choice":true,"side_choice": "RIGHT", "trial_number":71,"observed_reward":0,"unobserved_reward":0},{"RT":2241,"time": "2018-08-15 03:30:14pm", "schedule_type": "STATIC", "schedule_name": "random_8", "is_biased_choice":false,"side_choice": "LEFT", "trial_number":72,"observed_reward":0,"unobserved_reward":0},{"RT":2407,"time": "2018-08-15 03:30:17pm", "schedule_type": "STATIC", "schedule_name": "random_8", "is_biased_choice":true,"side_choice": "RIGHT", "trial_number":73,"observed_reward":0,"unobserved_reward":0},{"RT":2528,"time": "2018-08-15 03:30:19pm", "schedule_type": "STATIC", "schedule_name": "random_8", "is_biased_choice":false,"side_choice": "LEFT", "trial_number":74,"observed_reward":0,"unobserved_reward":1},{"RT":2152,"time": "2018-08-15 03:30:21pm", "schedule_type": "STATIC", "schedule_name": "random_8", "is_biased_choice":true,"side_choice": "RIGHT", "trial_number":75,"observed_reward":0,"unobserved_reward":0},{"RT":2208,"time": "2018-08-15 03:30:23pm", "schedule_type": "STATIC", "schedule_name": "random_8", "is_biased_choice":true,"side_choice": "RIGHT", "trial_number":76,"observed_reward":1,"unobserved_reward":0},{"RT":6352,"time": "2018-08-15 03:30:30pm", "schedule_type": "STATIC", "schedule_name": "random_8", "is_biased_choice":true,"side_choice": "RIGHT", "trial_number":77,"observed_reward":0,"unobserved_reward":0},{"RT":2832,"time": "2018-08-15 03:30:33pm", "schedule_type": "STATIC", "schedule_name": "random_8", "is_biased_choice":false,"side_choice": "LEFT", "trial_number":78,"observed_reward":1,"unobserved_reward":0},{"RT":2472,"time": "2018-08-15 03:30:35pm", "schedule_type": "STATIC", "schedule_name": "random_8", "is_biased_choice":true,"side_choice": "RIGHT", "trial_number":79,"observed_reward":0,"unobserved_reward":0},{"RT":2503,"time": "2018-08-15 03:30:38pm", "schedule_type": "STATIC", "schedule_name": "random_8", "is_biased_choice":false,"side_choice": "LEFT", "trial_number":80,"observed_reward":0,"unobserved_reward":1},{"RT":2681,"time": "2018-08-15 03:30:40pm", "schedule_type": "STATIC", "schedule_name": "random_8", "is_biased_choice":false,"side_choice": "LEFT", "trial_number":81,"observed_reward":0,"unobserved_reward":0},{"RT":2159,"time": "2018-08-15 03:30:42pm", "schedule_type": "STATIC", "schedule_name": "random_8", "is_biased_choice":true,"side_choice": "RIGHT", "trial_number":82,"observed_reward":0,"unobserved_reward":1},{"RT":2296,"time": "2018-08-15 03:30:45pm", "schedule_type": "STATIC", "schedule_name": "random_8", "is_biased_choice":true,"side_choice": "RIGHT", "trial_number":83,"observed_reward":0,"unobserved_reward":0},{"RT":2128,"time": "2018-08-15 03:30:47pm", "schedule_type": "STATIC", "schedule_name": "random_8", "is_biased_choice":true,"side_choice": "RIGHT", "trial_number":84,"observed_reward":0,"unobserved_reward":0},{"RT":2128,"time": "2018-08-15 03:30:49pm", "schedule_type": "STATIC", "schedule_name": "random_8", "is_biased_choice":false,"side_choice": "LEFT", "trial_number":85,"observed_reward":0,"unobserved_reward":0},{"RT":2112,"time": "2018-08-15 03:30:51pm", "schedule_type": "STATIC", "schedule_name": "random_8", "is_biased_choice":true,"side_choice": "RIGHT", "trial_number":86,"observed_reward":0,"unobserved_reward":0},{"RT":2168,"time": "2018-08-15 03:30:53pm", "schedule_type": "STATIC", "schedule_name": "random_8", "is_biased_choice":false,"side_choice": "LEFT", "trial_number":87,"observed_reward":0,"unobserved_reward":0},{"RT":2191,"time": "2018-08-15 03:30:55pm", "schedule_type": "STATIC", "schedule_name": "random_8", "is_biased_choice":true,"side_choice": "RIGHT", "trial_number":88,"observed_reward":0,"unobserved_reward":0},{"RT":2169,"time": "2018-08-15 03:30:58pm", "schedule_type": "STATIC", "schedule_name": "random_8", "is_biased_choice":true,"side_choice": "RIGHT", "trial_number":89,"observed_reward":0,"unobserved_reward":0},{"RT":2136,"time": "2018-08-15 03:31:00pm", "schedule_type": "STATIC", "schedule_name": "random_8", "is_biased_choice":true,"side_choice": "RIGHT", "trial_number":90,"observed_reward":1,"unobserved_reward":0},{"RT":2311,"time": "2018-08-15 03:31:02pm", "schedule_type": "STATIC", "schedule_name": "random_8", "is_biased_choice":true,"side_choice": "RIGHT", "trial_number":91,"observed_reward":1,"unobserved_reward":0},{"RT":2208,"time": "2018-08-15 03:31:04pm", "schedule_type": "STATIC", "schedule_name": "random_8", "is_biased_choice":true,"side_choice": "RIGHT", "trial_number":92,"observed_reward":0,"unobserved_reward":0},{"RT":2304,"time": "2018-08-15 03:31:07pm", "schedule_type": "STATIC", "schedule_name": "random_8", "is_biased_choice":true,"side_choice": "RIGHT", "trial_number":93,"observed_reward":0,"unobserved_reward":0},{"RT":2152,"time": "2018-08-15 03:31:09pm", "schedule_type": "STATIC", "schedule_name": "random_8", "is_biased_choice":true,"side_choice": "RIGHT", "trial_number":94,"observed_reward":0,"unobserved_reward":1},{"RT":2152,"time": "2018-08-15 03:31:11pm", "schedule_type": "STATIC", "schedule_name": "random_8", "is_biased_choice":true,"side_choice": "RIGHT", "trial_number":95,"observed_reward":0,"unobserved_reward":0},{"RT":2135,"time": "2018-08-15 03:31:13pm", "schedule_type": "STATIC", "schedule_name": "random_8", "is_biased_choice":true,"side_choice": "RIGHT", "trial_number":96,"observed_reward":1,"unobserved_reward":1},{"RT":2183,"time": "2018-08-15 03:31:15pm", "schedule_type": "STATIC", "schedule_name": "random_8", "is_biased_choice":true,"side_choice": "RIGHT", "trial_number":97,"observed_reward":0,"unobserved_reward":1},{"RT":2319,"time": "2018-08-15 03:31:18pm", "schedule_type": "STATIC", "schedule_name": "random_8", "is_biased_choice":true,"side_choice": "RIGHT", "trial_number":98,"observed_reward":0,"unobserved_reward":0},{"RT":2193,"time": "2018-08-15 03:31:20pm", "schedule_type": "STATIC", "schedule_name": "random_8", "is_biased_choice":true,"side_choice": "RIGHT", "trial_number":99,"observed_reward":1,"unobserved_reward":0},