[{"RT":2111,"time": "2018-08-15 03:35:03pm", "schedule_type": "STATIC", "schedule_name": "random_8", "is_biased_choice":true,"side_choice": "RIGHT", "trial_number":0,"observed_reward":0,"unobserved_reward":0},{"RT":4304,"time": "2018-08-15 03:35:07pm", "schedule_type": "STATIC", "schedule_name": "random_8", "is_biased_choice":true,"side_choice": "RIGHT", "trial_number":1,"observed_reward":1,"unobserved_reward":0},{"RT":2977,"time": "2018-08-15 03:35:10pm", "schedule_type": "STATIC", "schedule_name": "random_8", "is_biased_choice":true,"side_choice": "RIGHT", "trial_number":2,"observed_reward":0,"unobserved_reward":0},{"RT":8596,"time": "2018-08-15 03:35:19pm", "schedule_type": "STATIC", "schedule_name": "random_8", "is_biased_choice":false,"side_choice": "LEFT", "trial_number":3,"observed_reward":0,"unobserved_reward":1},{"RT":3227,"time": "2018-08-15 03:35:22pm", "schedule_type": "STATIC", "schedule_name": "random_8", "is_biased_choice":true,"side_choice": "RIGHT", "trial_number":4,"observed_reward":0,"unobserved_reward":1},{"RT":2898,"time": "2018-08-15 03:35:25pm", "schedule_type": "STATIC", "schedule_name": "random_8", "is_biased_choice":false,"side_choice": "LEFT", "trial_number":5,"observed_reward":0,"unobserved_reward":0},{"RT":3711,"time": "2018-08-15 03:35:29pm", "schedule_type": "STATIC", "schedule_name": "random_8", "is_biased_choice":false,"side_choice": "LEFT", "trial_number":6,"observed_reward":0,"unobserved_reward":0},{"RT":2887,"time": "2018-08-15 03:35:31pm", "schedule_type": "STATIC", "schedule_name": "random_8", "is_biased_choice":true,"side_choice": "RIGHT", "trial_number":7,"observed_reward":1,"unobserved_reward":0},{"RT":2914,"time": "2018-08-15 03:35:34pm", "schedule_type": "STATIC", "schedule_name": "random_8", "is_biased_choice":true,"side_choice": "RIGHT", "trial_number":8,"observed_reward":0,"unobserved_reward":0},{"RT":3559,"time": "2018-08-15 03:35:38pm", "schedule_type": "STATIC", "schedule_name": "random_8", "is_biased_choice":true,"side_choice": "RIGHT", "trial_number":9,"observed_reward":0,"unobserved_reward":0},{"RT":3119,"time": "2018-08-15 03:35:41pm", "schedule_type": "STATIC", "schedule_name": "random_8", "is_biased_choice":false,"side_choice": "LEFT", "trial_number":10,"observed_reward":0,"unobserved_reward":0},{"RT":3180,"time": "2018-08-15 03:35:44pm", "schedule_type": "STATIC", "schedule_name": "random_8", "is_biased_choice":true,"side_choice": "RIGHT", "trial_number":11,"observed_reward":0,"unobserved_reward":0},{"RT":2949,"time": "2018-08-15 03:35:47pm", "schedule_type": "STATIC", "schedule_name": "random_8", "is_biased_choice":true,"side_choice": "RIGHT", "trial_number":12,"observed_reward":0,"unobserved_reward":1},{"RT":4165,"time": "2018-08-15 03:35:51pm", "schedule_type": "STATIC", "schedule_name": "random_8", "is_biased_choice":false,"side_choice": "LEFT", "trial_number":13,"observed_reward":1,"unobserved_reward":0},{"RT":3842,"time": "2018-08-15 03:35:55pm", "schedule_type": "STATIC", "schedule_name": "random_8", "is_biased_choice":false,"side_choice": "LEFT", "trial_number":14,"observed_reward":0,"unobserved_reward":0},{"RT":157039,"time": "2018-08-15 03:38:32pm", "schedule_type": "STATIC", "schedule_name": "random_8", "is_biased_choice":false,"side_choice": "LEFT", "trial_number":15,"observed_reward":1,"unobserved_reward":0},{"RT":4263,"time": "2018-08-15 03:38:36pm", "schedule_type": "STATIC", "schedule_name": "random_8", "is_biased_choice":true,"side_choice": "RIGHT", "trial_number":16,"observed_reward":1,"unobserved_reward":0},{"RT":4070,"time": "2018-08-15 03:38:41pm", "schedule_type": "STATIC", "schedule_name": "random_8", "is_biased_choice":true,"side_choice": "RIGHT", "trial_number":17,"observed_reward":1,"unobserved_reward":1},{"RT":3331,"time": "2018-08-15 03:38:44pm", "schedule_type": "STATIC", "schedule_name": "random_8", "is_biased_choice":false,"side_choice": "LEFT", "trial_number":18,"observed_reward":0,"unobserved_reward":0},{"RT":88768,"time": "2018-08-15 03:40:13pm", "schedule_type": "STATIC", "schedule_name": "random_8", "is_biased_choice":true,"side_choice": "RIGHT", "trial_number":19,"observed_reward":0,"unobserved_reward":0},{"RT":5808,"time": "2018-08-15 03:40:18pm", "schedule_type": "STATIC", "schedule_name": "random_8", "is_biased_choice":false,"side_choice": "LEFT", "trial_number":20,"observed_reward":0,"unobserved_reward":1},{"RT":5089,"time": "2018-08-15 03:40:23pm", "schedule_type": "STATIC", "schedule_name": "random_8", "is_biased_choice":true,"side_choice": "RIGHT", "trial_number":21,"observed_reward":0,"unobserved_reward":1},{"RT":2837,"time": "2018-08-15 03:40:26pm", "schedule_type": "STATIC", "schedule_name": "random_8", "is_biased_choice":true,"side_choice": "RIGHT", "trial_number":22,"observed_reward":0,"unobserved_reward":0},{"RT":2954,"time": "2018-08-15 03:40:29pm", "schedule_type": "STATIC", "schedule_name": "random_8", "is_biased_choice":false,"side_choice": "LEFT", "trial_number":23,"observed_reward":1,"unobserved_reward":0},{"RT":2984,"time": "2018-08-15 03:40:32pm", "schedule_type": "STATIC", "schedule_name": "random_8", "is_biased_choice":false,"side_choice": "LEFT", "trial_number":24,"observed_reward":0,"unobserved_reward":1},{"RT":3096,"time": "2018-08-15 03:40:35pm", "schedule_type": "STATIC", "schedule_name": "random_8", "is_biased_choice":true,"side_choice": "RIGHT", "trial_number":25,"observed_reward":0,"unobserved_reward":0},{"RT":3183,"time": "2018-08-15 03:40:39pm", "schedule_type": "STATIC", "schedule_name": "random_8", "is_biased_choice":true,"side_choice": "RIGHT", "trial_number":26,"observed_reward":0,"unobserved_reward":1},{"RT":3009,"time": "2018-08-15 03:40:42pm", "schedule_type": "STATIC", "schedule_name": "random_8", "is_biased_choice":false,"side_choice": "LEFT", "trial_number":27,"observed_reward":1,"unobserved_reward":0},{"RT":3415,"time": "2018-08-15 03:40:45pm", "schedule_type": "STATIC", "schedule_name": "random_8", "is_biased_choice":true,"side_choice": "RIGHT", "trial_number":28,"observed_reward":0,"unobserved_reward":0},{"RT":3152,"time": "2018-08-15 03:40:48pm", "schedule_type": "STATIC", "schedule_name": "random_8", "is_biased_choice":true,"side_choice": "RIGHT", "trial_number":29,"observed_reward":0,"unobserved_reward":0},{"RT":3201,"time": "2018-08-15 03:40:51pm", "schedule_type": "STATIC", "schedule_name": "random_8", "is_biased_choice":false,"side_choice": "LEFT", "trial_number":30,"observed_reward":0,"unobserved_reward":0},{"RT":3040,"time": "2018-08-15 03:40:54pm", "schedule_type": "STATIC", "schedule_name": "random_8", "is_biased_choice":true,"side_choice": "RIGHT", "trial_number":31,"observed_reward":1,"unobserved_reward":0},{"RT":2864,"time": "2018-08-15 03:40:57pm", "schedule_type": "STATIC", "schedule_name": "random_8", "is_biased_choice":true,"side_choice": "RIGHT", "trial_number":32,"observed_reward":0,"unobserved_reward":1},{"RT":2861,"time": "2018-08-15 03:41:00pm", "schedule_type": "STATIC", "schedule_name": "random_8", "is_biased_choice":true,"side_choice": "RIGHT", "trial_number":33,"observed_reward":0,"unobserved_reward":0},{"RT":2860,"time": "2018-08-15 03:41:03pm", "schedule_type": "STATIC", "schedule_name": "random_8", "is_biased_choice":true,"side_choice": "RIGHT", "trial_number":34,"observed_reward":0,"unobserved_reward":0},{"RT":2975,"time": "2018-08-15 03:41:06pm", "schedule_type": "STATIC", "schedule_name": "random_8", "is_biased_choice":false,"side_choice": "LEFT", "trial_number":35,"observed_reward":1,"unobserved_reward":0},{"RT":3256,"time": "2018-08-15 03:41:09pm", "schedule_type": "STATIC", "schedule_name": "random_8", "is_biased_choice":false,"side_choice": "LEFT", "trial_number":36,"observed_reward":0,"unobserved_reward":0},{"RT":3086,"time": "2018-08-15 03:41:12pm", "schedule_type": "STATIC", "schedule_name": "random_8", "is_biased_choice":true,"side_choice": "RIGHT", "trial_number":37,"observed_reward":1,"unobserved_reward":1},{"RT":2760,"time": "2018-08-15 03:41:15pm", "schedule_type": "STATIC", "schedule_name": "random_8", "is_biased_choice":true,"side_choice": "RIGHT", "trial_number":38,"observed_reward":0,"unobserved_reward":1},{"RT":3211,"time": "2018-08-15 03:41:18pm", "schedule_type": "STATIC", "schedule_name": "random_8", "is_biased_choice":false,"side_choice": "LEFT", "trial_number":39,"observed_reward":0,"unobserved_reward":0},{"RT":3328,"time": "2018-08-15 03:41:22pm", "schedule_type": "STATIC", "schedule_name": "random_8", "is_biased_choice":true,"side_choice": "RIGHT", "trial_number":40,"observed_reward":0,"unobserved_reward":0},{"RT":3406,"time": "2018-08-15 03:41:25pm", "schedule_type": "STATIC", "schedule_name": "random_8", "is_biased_choice":false,"side_choice": "LEFT", "trial_number":41,"observed_reward":0,"unobserved_reward":0},{"RT":2849,"time": "2018-08-15 03:41:28pm", "schedule_type": "STATIC", "schedule_name": "random_8", "is_biased_choice":true,"side_choice": "RIGHT", "trial_number":42,"observed_reward":0,"unobserved_reward":1},{"RT":3174,"time": "2018-08-15 03:41:31pm", "schedule_type": "STATIC", "schedule_name": "random_8", "is_biased_choice":true,"side_choice": "RIGHT", "trial_number":43,"observed_reward":0,"unobserved_reward":0},{"RT":2896,"time": "2018-08-15 03:41:34pm", "schedule_type": "STATIC", "schedule_name": "random_8", "is_biased_choice":true,"side_choice": "RIGHT", "trial_number":44,"observed_reward":1,"unobserved_reward":0},{"RT":3212,"time": "2018-08-15 03:41:37pm", "schedule_type": "STATIC", "schedule_name": "random_8", "is_biased_choice":false,"side_choice": "LEFT", "trial_number":45,"observed_reward":0,"unobserved_reward":0},{"RT":4294,"time": "2018-08-15 03:41:41pm", "schedule_type": "STATIC", "schedule_name": "random_8", "is_biased_choice":false,"side_choice": "LEFT", "trial_number":46,"observed_reward":0,"unobserved_reward":0},{"RT":2831,"time": "2018-08-15 03:41:44pm", "schedule_type": "STATIC", "schedule_name": "random_8", "is_biased_choice":true,"side_choice": "RIGHT", "trial_number":47,"observed_reward":0,"unobserved_reward":0},{"RT":2793,"time": "2018-08-15 03:41:47pm", "schedule_type": "STATIC", "schedule_name": "random_8", "is_biased_choice":true,"side_choice": "RIGHT", "trial_number":48,"observed_reward":1,"unobserved_reward":1},{"RT":3133,"time": "2018-08-15 03:41:50pm", "schedule_type": "STATIC", "schedule_name": "random_8", "is_biased_choice":true,"side_choice": "RIGHT", "trial_number":49,"observed_reward":0,"unobserved_reward":0},{"RT":2849,"time": "2018-08-15 03:41:53pm", "schedule_type": "STATIC", "schedule_name": "random_8", "is_biased_choice":false,"side_choice": "LEFT", "trial_number":50,"observed_reward":0,"unobserved_reward":0},{"RT":2753,"time": "2018-08-15 03:41:56pm", "schedule_type": "STATIC", "schedule_name": "random_8", "is_biased_choice":true,"side_choice": "RIGHT", "trial_number":51,"observed_reward":1,"unobserved_reward":0},{"RT":2869,"time": "2018-08-15 03:41:59pm", "schedule_type": "STATIC", "schedule_name": "random_8", "is_biased_choice":false,"side_choice": "LEFT", "trial_number":52,"observed_reward":0,"unobserved_reward":0},{"RT":3534,"time": "2018-08-15 03:42:02pm", "schedule_type": "STATIC", "schedule_name": "random_8", "is_biased_choice":false,"side_choice": "LEFT", "trial_number":53,"observed_reward":1,"unobserved_reward":1},{"RT":3038,"time": "2018-08-15 03:42:05pm", "schedule_type": "STATIC", "schedule_name": "random_8", "is_biased_choice":false,"side_choice": "LEFT", "trial_number":54,"observed_reward":0,"unobserved_reward":0},{"RT":2855,"time": "2018-08-15 03:42:08pm", "schedule_type": "STATIC", "schedule_name": "random_8", "is_biased_choice":true,"side_choice": "RIGHT", "trial_number":55,"observed_reward":1,"unobserved_reward":0},{"RT":2889,"time": "2018-08-15 03:42:11pm", "schedule_type": "STATIC", "schedule_name": "random_8", "is_biased_choice":true,"side_choice": "RIGHT", "trial_number":56,"observed_reward":0,"unobserved_reward":0},{"RT":3000,"time": "2018-08-15 03:42:14pm", "schedule_type": "STATIC", "schedule_name": "random_8", "is_biased_choice":false,"side_choice": "LEFT", "trial_number":57,"observed_reward":1,"unobserved_reward":0},{"RT":3336,"time": "2018-08-15 03:42:17pm", "schedule_type": "STATIC", "schedule_name": "random_8", "is_biased_choice":true,"side_choice": "RIGHT", "trial_number":58,"observed_reward":0,"unobserved_reward":0},{"RT":2895,"time": "2018-08-15 03:42:20pm", "schedule_type": "STATIC", "schedule_name": "random_8", "is_biased_choice":true,"side_choice": "RIGHT", "trial_number":59,"observed_reward":0,"unobserved_reward":0},{"RT":2761,"time": "2018-08-15 03:42:23pm", "schedule_type": "STATIC", "schedule_name": "random_8", "is_biased_choice":true,"side_choice": "RIGHT", "trial_number":60,"observed_reward":0,"unobserved_reward":0},{"RT":2752,"time": "2018-08-15 03:42:26pm", "schedule_type": "STATIC", "schedule_name": "random_8", "is_biased_choice":true,"side_choice": "RIGHT", "trial_number":61,"observed_reward":1,"unobserved_reward":1},{"RT":2696,"time": "2018-08-15 03:42:28pm", "schedule_type": "STATIC", "schedule_name": "random_8", "is_biased_choice":true,"side_choice": "RIGHT", "trial_number":62,"observed_reward":1,"unobserved_reward":0},{"RT":2872,"time": "2018-08-15 03:42:31pm", "schedule_type": "STATIC", "schedule_name": "random_8", "is_biased_choice":true,"side_choice": "RIGHT", "trial_number":63,"observed_reward":0,"unobserved_reward":0},{"RT":2704,"time": "2018-08-15 03:42:34pm", "schedule_type": "STATIC", "schedule_name": "random_8", "is_biased_choice":true,"side_choice": "RIGHT", "trial_number":64,"observed_reward":0,"unobserved_reward":0},{"RT":2760,"time": "2018-08-15 03:42:37pm", "schedule_type": "STATIC", "schedule_name": "random_8", "is_biased_choice":false,"side_choice": "LEFT", "trial_number":65,"observed_reward":0,"unobserved_reward":1},{"RT":2864,"time": "2018-08-15 03:42:40pm", "schedule_type": "STATIC", "schedule_name": "random_8", "is_biased_choice":false,"side_choice": "LEFT", "trial_number":66,"observed_reward":0,"unobserved_reward":1},{"RT":2937,"time": "2018-08-15 03:42:42pm", "schedule_type": "STATIC", "schedule_name": "random_8", "is_biased_choice":false,"side_choice": "LEFT", "trial_number":67,"observed_reward":1,"unobserved_reward":0},{"RT":2711,"time": "2018-08-15 03:42:45pm", "schedule_type": "STATIC", "schedule_name": "random_8", "is_biased_choice":false,"side_choice": "LEFT", "trial_number":68,"observed_reward":0,"unobserved_reward":0},{"RT":2798,"time": "2018-08-15 03:42:48pm", "schedule_type": "STATIC", "schedule_name": "random_8", "is_biased_choice":true,"side_choice": "RIGHT", "trial_number":69,"observed_reward":0,"unobserved_reward":1},{"RT":3202,"time": "2018-08-15 03:42:51pm", "schedule_type": "STATIC", "schedule_name": "random_8", "is_biased_choice":false,"side_choice": "LEFT", "trial_number":70,"observed_reward":0,"unobserved_reward":0},{"RT":2905,"time": "2018-08-15 03:42:54pm", "schedule_type": "STATIC", "schedule_name": "random_8", "is_biased_choice":true,"side_choice": "RIGHT", "trial_number":71,"observed_reward":0,"unobserved_reward":0},{"RT":3015,"time": "2018-08-15 03:42:57pm", "schedule_type": "STATIC", "schedule_name": "random_8", "is_biased_choice":false,"side_choice": "LEFT", "trial_number":72,"observed_reward":0,"unobserved_reward":0},{"RT":3161,"time": "2018-08-15 03:43:00pm", "schedule_type": "STATIC", "schedule_name": "random_8", "is_biased_choice":true,"side_choice": "RIGHT", "trial_number":73,"observed_reward":0,"unobserved_reward":0},{"RT":2880,"time": "2018-08-15 03:43:03pm", "schedule_type": "STATIC", "schedule_name": "random_8", "is_biased_choice":true,"side_choice": "RIGHT", "trial_number":74,"observed_reward":1,"unobserved_reward":0},{"RT":2823,"time": "2018-08-15 03:43:06pm", "schedule_type": "STATIC", "schedule_name": "random_8", "is_biased_choice":true,"side_choice": "RIGHT", "trial_number":75,"observed_reward":0,"unobserved_reward":0},{"RT":2737,"time": "2018-08-15 03:43:09pm", "schedule_type": "STATIC", "schedule_name": "random_8", "is_biased_choice":false,"side_choice": "LEFT", "trial_number":76,"observed_reward":0,"unobserved_reward":1},{"RT":3983,"time": "2018-08-15 03:43:13pm", "schedule_type": "STATIC", "schedule_name": "random_8", "is_biased_choice":false,"side_choice": "LEFT", "trial_number":77,"observed_reward":0,"unobserved_reward":0},{"RT":2855,"time": "2018-08-15 03:43:16pm", "schedule_type": "STATIC", "schedule_name": "random_8", "is_biased_choice":true,"side_choice": "RIGHT", "trial_number":78,"observed_reward":0,"unobserved_reward":1},{"RT":3209,"time": "2018-08-15 03:43:19pm", "schedule_type": "STATIC", "schedule_name": "random_8", "is_biased_choice":true,"side_choice": "RIGHT", "trial_number":79,"observed_reward":0,"unobserved_reward":0},{"RT":3033,"time": "2018-08-15 03:43:22pm", "schedule_type": "STATIC", "schedule_name": "random_8", "is_biased_choice":true,"side_choice": "RIGHT", "trial_number":80,"observed_reward":1,"unobserved_reward":0},{"RT":3149,"time": "2018-08-15 03:43:25pm", "schedule_type": "STATIC", "schedule_name": "random_8", "is_biased_choice":false,"side_choice": "LEFT", "trial_number":81,"observed_reward":0,"unobserved_reward":0},{"RT":3402,"time": "2018-08-15 03:43:28pm", "schedule_type": "STATIC", "schedule_name": "random_8", "is_biased_choice":true,"side_choice": "RIGHT", "trial_number":82,"observed_reward":0,"unobserved_reward":1},{"RT":2911,"time": "2018-08-15 03:43:31pm", "schedule_type": "STATIC", "schedule_name": "random_8", "is_biased_choice":false,"side_choice": "LEFT", "trial_number":83,"observed_reward":0,"unobserved_reward":0},{"RT":3082,"time": "2018-08-15 03:43:34pm", "schedule_type": "STATIC", "schedule_name": "random_8", "is_biased_choice":false,"side_choice": "LEFT", "trial_number":84,"observed_reward":0,"unobserved_reward":0},{"RT":2799,"time": "2018-08-15 03:43:37pm", "schedule_type": "STATIC", "schedule_name": "random_8", "is_biased_choice":false,"side_choice": "LEFT", "trial_number":85,"observed_reward":0,"unobserved_reward":0},{"RT":2761,"time": "2018-08-15 03:43:40pm", "schedule_type": "STATIC", "schedule_name": "random_8", "is_biased_choice":false,"side_choice": "LEFT", "trial_number":86,"observed_reward":0,"unobserved_reward":0},{"RT":3030,"time": "2018-08-15 03:43:43pm", "schedule_type": "STATIC", "schedule_name": "random_8", "is_biased_choice":false,"side_choice": "LEFT", "trial_number":87,"observed_reward":0,"unobserved_reward":0},{"RT":2970,"time": "2018-08-15 03:43:46pm", "schedule_type": "STATIC", "schedule_name": "random_8", "is_biased_choice":true,"side_choice": "RIGHT", "trial_number":88,"observed_reward":0,"unobserved_reward":0},{"RT":2838,"time": "2018-08-15 03:43:49pm", "schedule_type": "STATIC", "schedule_name": "random_8", "is_biased_choice":false,"side_choice": "LEFT", "trial_number":89,"observed_reward":0,"unobserved_reward":0},{"RT":2762,"time": "2018-08-15 03:43:52pm", "schedule_type": "STATIC", "schedule_name": "random_8", "is_biased_choice":false,"side_choice": "LEFT", "trial_number":90,"observed_reward":0,"unobserved_reward":1},{"RT":2862,"time": "2018-08-15 03:43:54pm", "schedule_type": "STATIC", "schedule_name": "random_8", "is_biased_choice":false,"side_choice": "LEFT", "trial_number":91,"observed_reward":0,"unobserved_reward":1},{"RT":2792,"time": "2018-08-15 03:43:57pm", "schedule_type": "STATIC", "schedule_name": "random_8", "is_biased_choice":false,"side_choice": "LEFT", "trial_number":92,"observed_reward":0,"unobserved_reward":0},{"RT":2623,"time": "2018-08-15 03:44:00pm", "schedule_type": "STATIC", "schedule_name": "random_8", "is_biased_choice":false,"side_choice": "LEFT", "trial_number":93,"observed_reward":0,"unobserved_reward":0},{"RT":2853,"time": "2018-08-15 03:44:03pm", "schedule_type": "STATIC", "schedule_name": "random_8", "is_biased_choice":false,"side_choice": "LEFT", "trial_number":94,"observed_reward":1,"unobserved_reward":0},{"RT":2804,"time": "2018-08-15 03:44:05pm", "schedule_type": "STATIC", "schedule_name": "random_8", "is_biased_choice":false,"side_choice": "LEFT", "trial_number":95,"observed_reward":0,"unobserved_reward":0},{"RT":2796,"time": "2018-08-15 03:44:08pm", "schedule_type": "STATIC", "schedule_name": "random_8", "is_biased_choice":true,"side_choice": "RIGHT", "trial_number":96,"observed_reward":1,"unobserved_reward":1},{"RT":2814,"time": "2018-08-15 03:44:11pm", "schedule_type": "STATIC", "schedule_name": "random_8", "is_biased_choice":true,"side_choice": "RIGHT", "trial_number":97,"observed_reward":0,"unobserved_reward":1},{"RT":2647,"time": "2018-08-15 03:44:14pm", "schedule_type": "STATIC", "schedule_name": "random_8", "is_biased_choice":true,"side_choice": "RIGHT", "trial_number":98,"observed_reward":0,"unobserved_reward":0},{"RT":2738,"time": "2018-08-15 03:44:16pm", "schedule_type": "STATIC", "schedule_name": "random_8", "is_biased_choice":true,"side_choice": "RIGHT", "trial_number":99,"observed_reward":1,"unobserved_reward":0},