[{"RT":3538,"time": "2018-08-15 05:28:22pm", "schedule_type": "STATIC", "schedule_name": "random_8", "is_biased_choice":true,"side_choice": "RIGHT", "trial_number":0,"observed_reward":0,"unobserved_reward":0},{"RT":4128,"time": "2018-08-15 05:28:26pm", "schedule_type": "STATIC", "schedule_name": "random_8", "is_biased_choice":false,"side_choice": "LEFT", "trial_number":1,"observed_reward":0,"unobserved_reward":1},{"RT":3487,"time": "2018-08-15 05:28:29pm", "schedule_type": "STATIC", "schedule_name": "random_8", "is_biased_choice":true,"side_choice": "RIGHT", "trial_number":2,"observed_reward":0,"unobserved_reward":0},{"RT":3585,"time": "2018-08-15 05:28:33pm", "schedule_type": "STATIC", "schedule_name": "random_8", "is_biased_choice":true,"side_choice": "RIGHT", "trial_number":3,"observed_reward":1,"unobserved_reward":0},{"RT":3511,"time": "2018-08-15 05:28:37pm", "schedule_type": "STATIC", "schedule_name": "random_8", "is_biased_choice":true,"side_choice": "RIGHT", "trial_number":4,"observed_reward":0,"unobserved_reward":1},{"RT":3704,"time": "2018-08-15 05:28:40pm", "schedule_type": "STATIC", "schedule_name": "random_8", "is_biased_choice":true,"side_choice": "RIGHT", "trial_number":5,"observed_reward":0,"unobserved_reward":0},{"RT":3689,"time": "2018-08-15 05:28:44pm", "schedule_type": "STATIC", "schedule_name": "random_8", "is_biased_choice":false,"side_choice": "LEFT", "trial_number":6,"observed_reward":0,"unobserved_reward":0},{"RT":3471,"time": "2018-08-15 05:28:47pm", "schedule_type": "STATIC", "schedule_name": "random_8", "is_biased_choice":false,"side_choice": "LEFT", "trial_number":7,"observed_reward":0,"unobserved_reward":1},{"RT":3144,"time": "2018-08-15 05:28:51pm", "schedule_type": "STATIC", "schedule_name": "random_8", "is_biased_choice":false,"side_choice": "LEFT", "trial_number":8,"observed_reward":0,"unobserved_reward":0},{"RT":2808,"time": "2018-08-15 05:28:53pm", "schedule_type": "STATIC", "schedule_name": "random_8", "is_biased_choice":true,"side_choice": "RIGHT", "trial_number":9,"observed_reward":0,"unobserved_reward":0},{"RT":3736,"time": "2018-08-15 05:28:57pm", "schedule_type": "STATIC", "schedule_name": "random_8", "is_biased_choice":true,"side_choice": "RIGHT", "trial_number":10,"observed_reward":0,"unobserved_reward":0},{"RT":3000,"time": "2018-08-15 05:29:00pm", "schedule_type": "STATIC", "schedule_name": "random_8", "is_biased_choice":true,"side_choice": "RIGHT", "trial_number":11,"observed_reward":0,"unobserved_reward":0},{"RT":2896,"time": "2018-08-15 05:29:03pm", "schedule_type": "STATIC", "schedule_name": "random_8", "is_biased_choice":true,"side_choice": "RIGHT", "trial_number":12,"observed_reward":0,"unobserved_reward":1},{"RT":3193,"time": "2018-08-15 05:29:06pm", "schedule_type": "STATIC", "schedule_name": "random_8", "is_biased_choice":false,"side_choice": "LEFT", "trial_number":13,"observed_reward":1,"unobserved_reward":0},{"RT":3343,"time": "2018-08-15 05:29:10pm", "schedule_type": "STATIC", "schedule_name": "random_8", "is_biased_choice":false,"side_choice": "LEFT", "trial_number":14,"observed_reward":0,"unobserved_reward":0},{"RT":3064,"time": "2018-08-15 05:29:13pm", "schedule_type": "STATIC", "schedule_name": "random_8", "is_biased_choice":false,"side_choice": "LEFT", "trial_number":15,"observed_reward":1,"unobserved_reward":0},{"RT":3536,"time": "2018-08-15 05:29:16pm", "schedule_type": "STATIC", "schedule_name": "random_8", "is_biased_choice":false,"side_choice": "LEFT", "trial_number":16,"observed_reward":0,"unobserved_reward":1},{"RT":2849,"time": "2018-08-15 05:29:19pm", "schedule_type": "STATIC", "schedule_name": "random_8", "is_biased_choice":false,"side_choice": "LEFT", "trial_number":17,"observed_reward":1,"unobserved_reward":1},{"RT":3096,"time": "2018-08-15 05:29:22pm", "schedule_type": "STATIC", "schedule_name": "random_8", "is_biased_choice":true,"side_choice": "RIGHT", "trial_number":18,"observed_reward":0,"unobserved_reward":0},{"RT":3031,"time": "2018-08-15 05:29:25pm", "schedule_type": "STATIC", "schedule_name": "random_8", "is_biased_choice":false,"side_choice": "LEFT", "trial_number":19,"observed_reward":0,"unobserved_reward":0},{"RT":3512,"time": "2018-08-15 05:29:29pm", "schedule_type": "STATIC", "schedule_name": "random_8", "is_biased_choice":false,"side_choice": "LEFT", "trial_number":20,"observed_reward":0,"unobserved_reward":1},{"RT":3160,"time": "2018-08-15 05:29:32pm", "schedule_type": "STATIC", "schedule_name": "random_8", "is_biased_choice":false,"side_choice": "LEFT", "trial_number":21,"observed_reward":1,"unobserved_reward":0},{"RT":2704,"time": "2018-08-15 05:29:34pm", "schedule_type": "STATIC", "schedule_name": "random_8", "is_biased_choice":false,"side_choice": "LEFT", "trial_number":22,"observed_reward":0,"unobserved_reward":0},{"RT":2792,"time": "2018-08-15 05:29:37pm", "schedule_type": "STATIC", "schedule_name": "random_8", "is_biased_choice":false,"side_choice": "LEFT", "trial_number":23,"observed_reward":1,"unobserved_reward":0},{"RT":2864,"time": "2018-08-15 05:29:40pm", "schedule_type": "STATIC", "schedule_name": "random_8", "is_biased_choice":false,"side_choice": "LEFT", "trial_number":24,"observed_reward":0,"unobserved_reward":1},{"RT":3177,"time": "2018-08-15 05:29:43pm", "schedule_type": "STATIC", "schedule_name": "random_8", "is_biased_choice":true,"side_choice": "RIGHT", "trial_number":25,"observed_reward":0,"unobserved_reward":0},{"RT":2952,"time": "2018-08-15 05:29:46pm", "schedule_type": "STATIC", "schedule_name": "random_8", "is_biased_choice":true,"side_choice": "RIGHT", "trial_number":26,"observed_reward":0,"unobserved_reward":1},{"RT":3207,"time": "2018-08-15 05:29:49pm", "schedule_type": "STATIC", "schedule_name": "random_8", "is_biased_choice":true,"side_choice": "RIGHT", "trial_number":27,"observed_reward":0,"unobserved_reward":1},{"RT":2664,"time": "2018-08-15 05:29:52pm", "schedule_type": "STATIC", "schedule_name": "random_8", "is_biased_choice":true,"side_choice": "RIGHT", "trial_number":28,"observed_reward":0,"unobserved_reward":0},{"RT":3368,"time": "2018-08-15 05:29:56pm", "schedule_type": "STATIC", "schedule_name": "random_8", "is_biased_choice":false,"side_choice": "LEFT", "trial_number":29,"observed_reward":0,"unobserved_reward":0},{"RT":2784,"time": "2018-08-15 05:29:58pm", "schedule_type": "STATIC", "schedule_name": "random_8", "is_biased_choice":false,"side_choice": "LEFT", "trial_number":30,"observed_reward":0,"unobserved_reward":0},{"RT":2736,"time": "2018-08-15 05:30:01pm", "schedule_type": "STATIC", "schedule_name": "random_8", "is_biased_choice":false,"side_choice": "LEFT", "trial_number":31,"observed_reward":0,"unobserved_reward":1},{"RT":2968,"time": "2018-08-15 05:30:04pm", "schedule_type": "STATIC", "schedule_name": "random_8", "is_biased_choice":false,"side_choice": "LEFT", "trial_number":32,"observed_reward":1,"unobserved_reward":0},{"RT":2680,"time": "2018-08-15 05:30:07pm", "schedule_type": "STATIC", "schedule_name": "random_8", "is_biased_choice":false,"side_choice": "LEFT", "trial_number":33,"observed_reward":0,"unobserved_reward":0},{"RT":2680,"time": "2018-08-15 05:30:09pm", "schedule_type": "STATIC", "schedule_name": "random_8", "is_biased_choice":false,"side_choice": "LEFT", "trial_number":34,"observed_reward":0,"unobserved_reward":0},{"RT":2840,"time": "2018-08-15 05:30:12pm", "schedule_type": "STATIC", "schedule_name": "random_8", "is_biased_choice":false,"side_choice": "LEFT", "trial_number":35,"observed_reward":1,"unobserved_reward":0},{"RT":2696,"time": "2018-08-15 05:30:15pm", "schedule_type": "STATIC", "schedule_name": "random_8", "is_biased_choice":false,"side_choice": "LEFT", "trial_number":36,"observed_reward":0,"unobserved_reward":0},{"RT":2600,"time": "2018-08-15 05:30:17pm", "schedule_type": "STATIC", "schedule_name": "random_8", "is_biased_choice":false,"side_choice": "LEFT", "trial_number":37,"observed_reward":1,"unobserved_reward":1},{"RT":2776,"time": "2018-08-15 05:30:20pm", "schedule_type": "STATIC", "schedule_name": "random_8", "is_biased_choice":false,"side_choice": "LEFT", "trial_number":38,"observed_reward":1,"unobserved_reward":0},{"RT":2640,"time": "2018-08-15 05:30:23pm", "schedule_type": "STATIC", "schedule_name": "random_8", "is_biased_choice":false,"side_choice": "LEFT", "trial_number":39,"observed_reward":0,"unobserved_reward":0},{"RT":2536,"time": "2018-08-15 05:30:25pm", "schedule_type": "STATIC", "schedule_name": "random_8", "is_biased_choice":false,"side_choice": "LEFT", "trial_number":40,"observed_reward":0,"unobserved_reward":0},{"RT":2728,"time": "2018-08-15 05:30:28pm", "schedule_type": "STATIC", "schedule_name": "random_8", "is_biased_choice":false,"side_choice": "LEFT", "trial_number":41,"observed_reward":0,"unobserved_reward":0},{"RT":2639,"time": "2018-08-15 05:30:31pm", "schedule_type": "STATIC", "schedule_name": "random_8", "is_biased_choice":false,"side_choice": "LEFT", "trial_number":42,"observed_reward":1,"unobserved_reward":0},{"RT":3161,"time": "2018-08-15 05:30:34pm", "schedule_type": "STATIC", "schedule_name": "random_8", "is_biased_choice":false,"side_choice": "LEFT", "trial_number":43,"observed_reward":0,"unobserved_reward":0},{"RT":4015,"time": "2018-08-15 05:30:38pm", "schedule_type": "STATIC", "schedule_name": "random_8", "is_biased_choice":false,"side_choice": "LEFT", "trial_number":44,"observed_reward":0,"unobserved_reward":1},{"RT":2841,"time": "2018-08-15 05:30:41pm", "schedule_type": "STATIC", "schedule_name": "random_8", "is_biased_choice":true,"side_choice": "RIGHT", "trial_number":45,"observed_reward":0,"unobserved_reward":0},{"RT":2624,"time": "2018-08-15 05:30:43pm", "schedule_type": "STATIC", "schedule_name": "random_8", "is_biased_choice":true,"side_choice": "RIGHT", "trial_number":46,"observed_reward":0,"unobserved_reward":0},{"RT":3248,"time": "2018-08-15 05:30:47pm", "schedule_type": "STATIC", "schedule_name": "random_8", "is_biased_choice":true,"side_choice": "RIGHT", "trial_number":47,"observed_reward":0,"unobserved_reward":0},{"RT":2688,"time": "2018-08-15 05:30:49pm", "schedule_type": "STATIC", "schedule_name": "random_8", "is_biased_choice":true,"side_choice": "RIGHT", "trial_number":48,"observed_reward":1,"unobserved_reward":1},{"RT":2655,"time": "2018-08-15 05:30:52pm", "schedule_type": "STATIC", "schedule_name": "random_8", "is_biased_choice":true,"side_choice": "RIGHT", "trial_number":49,"observed_reward":0,"unobserved_reward":0},{"RT":2873,"time": "2018-08-15 05:30:55pm", "schedule_type": "STATIC", "schedule_name": "random_8", "is_biased_choice":true,"side_choice": "RIGHT", "trial_number":50,"observed_reward":0,"unobserved_reward":0},{"RT":2815,"time": "2018-08-15 05:30:58pm", "schedule_type": "STATIC", "schedule_name": "random_8", "is_biased_choice":true,"side_choice": "RIGHT", "trial_number":51,"observed_reward":1,"unobserved_reward":0},{"RT":3064,"time": "2018-08-15 05:31:01pm", "schedule_type": "STATIC", "schedule_name": "random_8", "is_biased_choice":true,"side_choice": "RIGHT", "trial_number":52,"observed_reward":0,"unobserved_reward":0},{"RT":2712,"time": "2018-08-15 05:31:03pm", "schedule_type": "STATIC", "schedule_name": "random_8", "is_biased_choice":true,"side_choice": "RIGHT", "trial_number":53,"observed_reward":1,"unobserved_reward":1},{"RT":2936,"time": "2018-08-15 05:31:06pm", "schedule_type": "STATIC", "schedule_name": "random_8", "is_biased_choice":true,"side_choice": "RIGHT", "trial_number":54,"observed_reward":0,"unobserved_reward":0},{"RT":3240,"time": "2018-08-15 05:31:10pm", "schedule_type": "STATIC", "schedule_name": "random_8", "is_biased_choice":true,"side_choice": "RIGHT", "trial_number":55,"observed_reward":1,"unobserved_reward":0},{"RT":2912,"time": "2018-08-15 05:31:13pm", "schedule_type": "STATIC", "schedule_name": "random_8", "is_biased_choice":true,"side_choice": "RIGHT", "trial_number":56,"observed_reward":0,"unobserved_reward":0},{"RT":2656,"time": "2018-08-15 05:31:15pm", "schedule_type": "STATIC", "schedule_name": "random_8", "is_biased_choice":true,"side_choice": "RIGHT", "trial_number":57,"observed_reward":0,"unobserved_reward":1},{"RT":2944,"time": "2018-08-15 05:31:18pm", "schedule_type": "STATIC", "schedule_name": "random_8", "is_biased_choice":true,"side_choice": "RIGHT", "trial_number":58,"observed_reward":0,"unobserved_reward":0},{"RT":2632,"time": "2018-08-15 05:31:21pm", "schedule_type": "STATIC", "schedule_name": "random_8", "is_biased_choice":true,"side_choice": "RIGHT", "trial_number":59,"observed_reward":0,"unobserved_reward":0},{"RT":2680,"time": "2018-08-15 05:31:23pm", "schedule_type": "STATIC", "schedule_name": "random_8", "is_biased_choice":true,"side_choice": "RIGHT", "trial_number":60,"observed_reward":0,"unobserved_reward":0},{"RT":2968,"time": "2018-08-15 05:31:26pm", "schedule_type": "STATIC", "schedule_name": "random_8", "is_biased_choice":false,"side_choice": "LEFT", "trial_number":61,"observed_reward":1,"unobserved_reward":1},{"RT":3040,"time": "2018-08-15 05:31:29pm", "schedule_type": "STATIC", "schedule_name": "random_8", "is_biased_choice":false,"side_choice": "LEFT", "trial_number":62,"observed_reward":0,"unobserved_reward":1},{"RT":2640,"time": "2018-08-15 05:31:32pm", "schedule_type": "STATIC", "schedule_name": "random_8", "is_biased_choice":false,"side_choice": "LEFT", "trial_number":63,"observed_reward":0,"unobserved_reward":0},{"RT":2976,"time": "2018-08-15 05:31:35pm", "schedule_type": "STATIC", "schedule_name": "random_8", "is_biased_choice":false,"side_choice": "LEFT", "trial_number":64,"observed_reward":0,"unobserved_reward":0},{"RT":2560,"time": "2018-08-15 05:31:38pm", "schedule_type": "STATIC", "schedule_name": "random_8", "is_biased_choice":true,"side_choice": "RIGHT", "trial_number":65,"observed_reward":1,"unobserved_reward":0},{"RT":2976,"time": "2018-08-15 05:31:41pm", "schedule_type": "STATIC", "schedule_name": "random_8", "is_biased_choice":false,"side_choice": "LEFT", "trial_number":66,"observed_reward":0,"unobserved_reward":1},{"RT":3712,"time": "2018-08-15 05:31:44pm", "schedule_type": "STATIC", "schedule_name": "random_8", "is_biased_choice":false,"side_choice": "LEFT", "trial_number":67,"observed_reward":1,"unobserved_reward":0},{"RT":2784,"time": "2018-08-15 05:31:47pm", "schedule_type": "STATIC", "schedule_name": "random_8", "is_biased_choice":true,"side_choice": "RIGHT", "trial_number":68,"observed_reward":0,"unobserved_reward":0},{"RT":3136,"time": "2018-08-15 05:31:50pm", "schedule_type": "STATIC", "schedule_name": "random_8", "is_biased_choice":true,"side_choice": "RIGHT", "trial_number":69,"observed_reward":0,"unobserved_reward":1},{"RT":2704,"time": "2018-08-15 05:31:53pm", "schedule_type": "STATIC", "schedule_name": "random_8", "is_biased_choice":true,"side_choice": "RIGHT", "trial_number":70,"observed_reward":0,"unobserved_reward":0},{"RT":2848,"time": "2018-08-15 05:31:56pm", "schedule_type": "STATIC", "schedule_name": "random_8", "is_biased_choice":true,"side_choice": "RIGHT", "trial_number":71,"observed_reward":0,"unobserved_reward":0},{"RT":2816,"time": "2018-08-15 05:31:59pm", "schedule_type": "STATIC", "schedule_name": "random_8", "is_biased_choice":true,"side_choice": "RIGHT", "trial_number":72,"observed_reward":0,"unobserved_reward":0},{"RT":2623,"time": "2018-08-15 05:32:01pm", "schedule_type": "STATIC", "schedule_name": "random_8", "is_biased_choice":false,"side_choice": "LEFT", "trial_number":73,"observed_reward":0,"unobserved_reward":0},{"RT":2633,"time": "2018-08-15 05:32:04pm", "schedule_type": "STATIC", "schedule_name": "random_8", "is_biased_choice":false,"side_choice": "LEFT", "trial_number":74,"observed_reward":0,"unobserved_reward":1},{"RT":2735,"time": "2018-08-15 05:32:07pm", "schedule_type": "STATIC", "schedule_name": "random_8", "is_biased_choice":false,"side_choice": "LEFT", "trial_number":75,"observed_reward":0,"unobserved_reward":0},{"RT":2713,"time": "2018-08-15 05:32:09pm", "schedule_type": "STATIC", "schedule_name": "random_8", "is_biased_choice":false,"side_choice": "LEFT", "trial_number":76,"observed_reward":0,"unobserved_reward":1},{"RT":2688,"time": "2018-08-15 05:32:12pm", "schedule_type": "STATIC", "schedule_name": "random_8", "is_biased_choice":false,"side_choice": "LEFT", "trial_number":77,"observed_reward":0,"unobserved_reward":0},{"RT":2551,"time": "2018-08-15 05:32:15pm", "schedule_type": "STATIC", "schedule_name": "random_8", "is_biased_choice":false,"side_choice": "LEFT", "trial_number":78,"observed_reward":1,"unobserved_reward":0},{"RT":2896,"time": "2018-08-15 05:32:17pm", "schedule_type": "STATIC", "schedule_name": "random_8", "is_biased_choice":false,"side_choice": "LEFT", "trial_number":79,"observed_reward":0,"unobserved_reward":0},{"RT":2657,"time": "2018-08-15 05:32:20pm", "schedule_type": "STATIC", "schedule_name": "random_8", "is_biased_choice":false,"side_choice": "LEFT", "trial_number":80,"observed_reward":0,"unobserved_reward":1},{"RT":2712,"time": "2018-08-15 05:32:23pm", "schedule_type": "STATIC", "schedule_name": "random_8", "is_biased_choice":false,"side_choice": "LEFT", "trial_number":81,"observed_reward":0,"unobserved_reward":0},{"RT":2624,"time": "2018-08-15 05:32:25pm", "schedule_type": "STATIC", "schedule_name": "random_8", "is_biased_choice":false,"side_choice": "LEFT", "trial_number":82,"observed_reward":1,"unobserved_reward":0},{"RT":2991,"time": "2018-08-15 05:32:28pm", "schedule_type": "STATIC", "schedule_name": "random_8", "is_biased_choice":false,"side_choice": "LEFT", "trial_number":83,"observed_reward":0,"unobserved_reward":0},{"RT":2904,"time": "2018-08-15 05:32:31pm", "schedule_type": "STATIC", "schedule_name": "random_8", "is_biased_choice":false,"side_choice": "LEFT", "trial_number":84,"observed_reward":0,"unobserved_reward":0},{"RT":2793,"time": "2018-08-15 05:32:34pm", "schedule_type": "STATIC", "schedule_name": "random_8", "is_biased_choice":false,"side_choice": "LEFT", "trial_number":85,"observed_reward":0,"unobserved_reward":0},{"RT":3231,"time": "2018-08-15 05:32:37pm", "schedule_type": "STATIC", "schedule_name": "random_8", "is_biased_choice":true,"side_choice": "RIGHT", "trial_number":86,"observed_reward":0,"unobserved_reward":0},{"RT":2705,"time": "2018-08-15 05:32:40pm", "schedule_type": "STATIC", "schedule_name": "random_8", "is_biased_choice":true,"side_choice": "RIGHT", "trial_number":87,"observed_reward":0,"unobserved_reward":0},{"RT":2591,"time": "2018-08-15 05:32:43pm", "schedule_type": "STATIC", "schedule_name": "random_8", "is_biased_choice":true,"side_choice": "RIGHT", "trial_number":88,"observed_reward":0,"unobserved_reward":0},{"RT":2705,"time": "2018-08-15 05:32:45pm", "schedule_type": "STATIC", "schedule_name": "random_8", "is_biased_choice":true,"side_choice": "RIGHT", "trial_number":89,"observed_reward":0,"unobserved_reward":0},{"RT":2567,"time": "2018-08-15 05:32:48pm", "schedule_type": "STATIC", "schedule_name": "random_8", "is_biased_choice":true,"side_choice": "RIGHT", "trial_number":90,"observed_reward":1,"unobserved_reward":0},{"RT":2808,"time": "2018-08-15 05:32:51pm", "schedule_type": "STATIC", "schedule_name": "random_8", "is_biased_choice":true,"side_choice": "RIGHT", "trial_number":91,"observed_reward":1,"unobserved_reward":0},{"RT":2769,"time": "2018-08-15 05:32:53pm", "schedule_type": "STATIC", "schedule_name": "random_8", "is_biased_choice":true,"side_choice": "RIGHT", "trial_number":92,"observed_reward":0,"unobserved_reward":0},{"RT":2895,"time": "2018-08-15 05:32:56pm", "schedule_type": "STATIC", "schedule_name": "random_8", "is_biased_choice":true,"side_choice": "RIGHT", "trial_number":93,"observed_reward":0,"unobserved_reward":0},{"RT":2760,"time": "2018-08-15 05:32:59pm", "schedule_type": "STATIC", "schedule_name": "random_8", "is_biased_choice":false,"side_choice": "LEFT", "trial_number":94,"observed_reward":1,"unobserved_reward":0},{"RT":3008,"time": "2018-08-15 05:33:02pm", "schedule_type": "STATIC", "schedule_name": "random_8", "is_biased_choice":false,"side_choice": "LEFT", "trial_number":95,"observed_reward":0,"unobserved_reward":0},{"RT":2743,"time": "2018-08-15 05:33:05pm", "schedule_type": "STATIC", "schedule_name": "random_8", "is_biased_choice":false,"side_choice": "LEFT", "trial_number":96,"observed_reward":1,"unobserved_reward":1},{"RT":3033,"time": "2018-08-15 05:33:08pm", "schedule_type": "STATIC", "schedule_name": "random_8", "is_biased_choice":true,"side_choice": "RIGHT", "trial_number":97,"observed_reward":0,"unobserved_reward":1},{"RT":2704,"time": "2018-08-15 05:33:11pm", "schedule_type": "STATIC", "schedule_name": "random_8", "is_biased_choice":true,"side_choice": "RIGHT", "trial_number":98,"observed_reward":0,"unobserved_reward":0},{"RT":2680,"time": "2018-08-15 05:33:13pm", "schedule_type": "STATIC", "schedule_name": "random_8", "is_biased_choice":true,"side_choice": "RIGHT", "trial_number":99,"observed_reward":1,"unobserved_reward":0},