trial_number, time, schedule_type, schedule_name, is_biased_choice, side_choice, RT, observed_reward, unobserved_reward, biased_reward, unbiased_reward
0,2018-08-15 05:32:15pm, STATIC, random_8, true, LEFT, 2137, 0, 0, 0, 0
1,2018-08-15 05:32:18pm, STATIC, random_8, false, RIGHT, 2888, 0, 1, 1, 0
2,2018-08-15 05:32:21pm, STATIC, random_8, false, RIGHT, 2930, 0, 0, 0, 0
3,2018-08-15 05:32:23pm, STATIC, random_8, true, LEFT, 2438, 1, 0, 1, 0
4,2018-08-15 05:32:26pm, STATIC, random_8, true, LEFT, 3004, 0, 1, 0, 1
5,2018-08-15 05:32:29pm, STATIC, random_8, false, RIGHT, 2717, 0, 0, 0, 0
6,2018-08-15 05:32:32pm, STATIC, random_8, true, LEFT, 3005, 0, 0, 0, 0
7,2018-08-15 05:32:34pm, STATIC, random_8, true, LEFT, 2546, 1, 0, 1, 0
8,2018-08-15 05:32:37pm, STATIC, random_8, false, RIGHT, 2630, 0, 0, 0, 0
9,2018-08-15 05:32:39pm, STATIC, random_8, false, RIGHT, 2393, 0, 0, 0, 0
10,2018-08-15 05:32:42pm, STATIC, random_8, true, LEFT, 2306, 0, 0, 0, 0
11,2018-08-15 05:32:44pm, STATIC, random_8, false, RIGHT, 2354, 0, 0, 0, 0
12,2018-08-15 05:32:47pm, STATIC, random_8, false, RIGHT, 2833, 1, 0, 0, 1
13,2018-08-15 05:32:49pm, STATIC, random_8, false, RIGHT, 2200, 1, 0, 0, 1
14,2018-08-15 05:32:51pm, STATIC, random_8, false, RIGHT, 2223, 0, 0, 0, 0
15,2018-08-15 05:32:53pm, STATIC, random_8, false, RIGHT, 2311, 1, 0, 0, 1
16,2018-08-15 05:32:56pm, STATIC, random_8, false, RIGHT, 2380, 0, 1, 1, 0
17,2018-08-15 05:32:58pm, STATIC, random_8, false, RIGHT, 2359, 1, 1, 1, 1
18,2018-08-15 05:33:01pm, STATIC, random_8, false, RIGHT, 2385, 0, 0, 0, 0
19,2018-08-15 05:33:03pm, STATIC, random_8, false, RIGHT, 2447, 0, 0, 0, 0
20,2018-08-15 05:33:06pm, STATIC, random_8, false, RIGHT, 2468, 0, 1, 1, 0
21,2018-08-15 05:33:08pm, STATIC, random_8, false, RIGHT, 2371, 1, 0, 0, 1
22,2018-08-15 05:33:10pm, STATIC, random_8, false, RIGHT, 2228, 0, 0, 0, 0
23,2018-08-15 05:33:13pm, STATIC, random_8, false, RIGHT, 2482, 1, 0, 0, 1
24,2018-08-15 05:33:15pm, STATIC, random_8, true, LEFT, 2280, 1, 0, 1, 0
25,2018-08-15 05:33:17pm, STATIC, random_8, true, LEFT, 2504, 0, 0, 0, 0
26,2018-08-15 05:33:20pm, STATIC, random_8, true, LEFT, 2195, 0, 1, 0, 1
27,2018-08-15 05:33:22pm, STATIC, random_8, true, LEFT, 2702, 0, 1, 0, 1
28,2018-08-15 05:33:25pm, STATIC, random_8, false, RIGHT, 2307, 0, 0, 0, 0
29,2018-08-15 05:33:27pm, STATIC, random_8, false, RIGHT, 2546, 0, 0, 0, 0
30,2018-08-15 05:33:30pm, STATIC, random_8, true, LEFT, 2620, 0, 0, 0, 0
31,2018-08-15 05:33:33pm, STATIC, random_8, false, RIGHT, 2988, 0, 1, 1, 0
32,2018-08-15 05:33:35pm, STATIC, random_8, true, LEFT, 2162, 0, 1, 0, 1
33,2018-08-15 05:33:38pm, STATIC, random_8, false, RIGHT, 2639, 0, 0, 0, 0
34,2018-08-15 05:33:41pm, STATIC, random_8, false, RIGHT, 3862, 0, 0, 0, 0
35,2018-08-15 05:33:44pm, STATIC, random_8, true, LEFT, 2499, 0, 1, 0, 1
36,2018-08-15 05:33:46pm, STATIC, random_8, false, RIGHT, 2205, 0, 0, 0, 0
37,2018-08-15 05:33:48pm, STATIC, random_8, false, RIGHT, 2261, 1, 1, 1, 1
38,2018-08-15 05:33:51pm, STATIC, random_8, false, RIGHT, 2426, 1, 0, 0, 1
39,2018-08-15 05:33:53pm, STATIC, random_8, false, RIGHT, 2459, 0, 0, 0, 0
40,2018-08-15 05:33:57pm, STATIC, random_8, false, RIGHT, 3453, 0, 0, 0, 0
41,2018-08-15 05:33:59pm, STATIC, random_8, true, LEFT, 2561, 0, 0, 0, 0
42,2018-08-15 05:34:02pm, STATIC, random_8, false, RIGHT, 2928, 1, 0, 0, 1
43,2018-08-15 05:34:04pm, STATIC, random_8, false, RIGHT, 2219, 0, 0, 0, 0
44,2018-08-15 05:34:12pm, STATIC, random_8, false, RIGHT, 7501, 0, 1, 1, 0
45,2018-08-15 05:34:14pm, STATIC, random_8, true, LEFT, 2330, 0, 0, 0, 0
46,2018-08-15 05:34:16pm, STATIC, random_8, false, RIGHT, 2177, 0, 0, 0, 0
47,2018-08-15 05:34:19pm, STATIC, random_8, false, RIGHT, 2196, 0, 0, 0, 0
48,2018-08-15 05:34:21pm, STATIC, random_8, false, RIGHT, 2201, 1, 1, 1, 1
49,2018-08-15 05:34:23pm, STATIC, random_8, false, RIGHT, 2319, 0, 0, 0, 0
50,2018-08-15 05:34:26pm, STATIC, random_8, true, LEFT, 2412, 0, 0, 0, 0
51,2018-08-15 05:34:28pm, STATIC, random_8, false, RIGHT, 2326, 0, 1, 1, 0
52,2018-08-15 05:34:30pm, STATIC, random_8, false, RIGHT, 2408, 0, 0, 0, 0
53,2018-08-15 05:34:33pm, STATIC, random_8, false, RIGHT, 2260, 1, 1, 1, 1
54,2018-08-15 05:34:35pm, STATIC, random_8, false, RIGHT, 2336, 0, 0, 0, 0
55,2018-08-15 05:34:37pm, STATIC, random_8, true, LEFT, 2375, 1, 0, 1, 0
56,2018-08-15 05:34:40pm, STATIC, random_8, false, RIGHT, 2304, 0, 0, 0, 0
57,2018-08-15 05:34:42pm, STATIC, random_8, false, RIGHT, 2301, 1, 0, 0, 1
58,2018-08-15 05:34:44pm, STATIC, random_8, false, RIGHT, 2450, 0, 0, 0, 0
59,2018-08-15 05:34:47pm, STATIC, random_8, false, RIGHT, 2300, 0, 0, 0, 0
60,2018-08-15 05:34:49pm, STATIC, random_8, false, RIGHT, 2289, 0, 0, 0, 0
61,2018-08-15 05:34:51pm, STATIC, random_8, false, RIGHT, 2360, 1, 1, 1, 1
62,2018-08-15 05:34:54pm, STATIC, random_8, false, RIGHT, 2391, 0, 1, 1, 0
63,2018-08-15 05:34:56pm, STATIC, random_8, false, RIGHT, 2314, 0, 0, 0, 0
64,2018-08-15 05:34:59pm, STATIC, random_8, false, RIGHT, 2911, 0, 0, 0, 0
65,2018-08-15 05:35:01pm, STATIC, random_8, false, RIGHT, 2584, 0, 1, 1, 0
66,2018-08-15 05:35:33pm, STATIC, random_8, false, RIGHT, 31736, 0, 1, 1, 0
67,2018-08-15 05:35:36pm, STATIC, random_8, false, RIGHT, 2764, 1, 0, 0, 1
68,2018-08-15 05:35:38pm, STATIC, random_8, false, RIGHT, 2163, 0, 0, 0, 0
69,2018-08-15 05:35:41pm, STATIC, random_8, false, RIGHT, 2528, 1, 0, 0, 1
70,2018-08-15 05:35:43pm, STATIC, random_8, false, RIGHT, 2195, 0, 0, 0, 0
71,2018-08-15 05:35:45pm, STATIC, random_8, false, RIGHT, 2179, 0, 0, 0, 0
72,2018-08-15 05:35:47pm, STATIC, random_8, false, RIGHT, 2255, 0, 0, 0, 0
73,2018-08-15 05:35:50pm, STATIC, random_8, false, RIGHT, 2221, 0, 0, 0, 0
74,2018-08-15 05:35:52pm, STATIC, random_8, false, RIGHT, 2265, 0, 1, 1, 0
75,2018-08-15 05:35:54pm, STATIC, random_8, false, RIGHT, 2220, 0, 0, 0, 0
76,2018-08-15 05:35:57pm, STATIC, random_8, true, LEFT, 2672, 1, 0, 1, 0
77,2018-08-15 05:35:59pm, STATIC, random_8, false, RIGHT, 2309, 0, 0, 0, 0
78,2018-08-15 05:36:01pm, STATIC, random_8, false, RIGHT, 2138, 1, 0, 0, 1
79,2018-08-15 05:36:03pm, STATIC, random_8, false, RIGHT, 2254, 0, 0, 0, 0
80,2018-08-15 05:36:06pm, STATIC, random_8, false, RIGHT, 2152, 0, 1, 1, 0
81,2018-08-15 05:36:08pm, STATIC, random_8, true, LEFT, 2620, 0, 0, 0, 0
82,2018-08-15 05:36:10pm, STATIC, random_8, false, RIGHT, 2315, 1, 0, 0, 1
83,2018-08-15 05:36:13pm, STATIC, random_8, false, RIGHT, 2409, 0, 0, 0, 0
84,2018-08-15 05:36:15pm, STATIC, random_8, false, RIGHT, 2362, 0, 0, 0, 0
85,2018-08-15 05:36:18pm, STATIC, random_8, false, RIGHT, 2282, 0, 0, 0, 0
86,2018-08-15 05:36:20pm, STATIC, random_8, false, RIGHT, 2359, 0, 0, 0, 0
87,2018-08-15 05:36:26pm, STATIC, random_8, false, RIGHT, 6533, 0, 0, 0, 0
88,2018-08-15 05:36:29pm, STATIC, random_8, true, LEFT, 2650, 0, 0, 0, 0
89,2018-08-15 05:36:32pm, STATIC, random_8, true, LEFT, 2733, 0, 0, 0, 0
90,2018-08-15 05:36:35pm, STATIC, random_8, true, LEFT, 3342, 1, 0, 1, 0
91,2018-08-15 05:36:39pm, STATIC, random_8, true, LEFT, 3332, 1, 0, 1, 0
92,2018-08-15 05:36:41pm, STATIC, random_8, true, LEFT, 2414, 0, 0, 0, 0
93,2018-08-15 05:36:43pm, STATIC, random_8, true, LEFT, 2438, 0, 0, 0, 0
94,2018-08-15 05:36:46pm, STATIC, random_8, true, LEFT, 2296, 0, 1, 0, 1
95,2018-08-15 05:36:48pm, STATIC, random_8, true, LEFT, 2491, 0, 0, 0, 0
96,2018-08-15 05:36:50pm, STATIC, random_8, true, LEFT, 2390, 1, 1, 1, 1
97,2018-08-15 05:36:53pm, STATIC, random_8, true, LEFT, 2878, 0, 1, 0, 1
98,2018-08-15 05:36:56pm, STATIC, random_8, true, LEFT, 3022, 0, 0, 0, 0
99,2018-08-15 05:36:59pm, STATIC, random_8, true, LEFT, 2812, 1, 0, 1, 0
