trial_number, time, schedule_type, schedule_name, is_biased_choice, side_choice, RT, observed_reward, unobserved_reward, biased_reward, unbiased_reward
0,2018-07-29 03:47:48pm, STATIC, random_14, false, RIGHT, 1688, 0, 0, 0, 0
1,2018-07-29 03:47:50pm, STATIC, random_14, true, LEFT, 2647, 0, 0, 0, 0
2,2018-07-29 03:47:53pm, STATIC, random_14, true, LEFT, 2814, 1, 0, 1, 0
3,2018-07-29 03:47:56pm, STATIC, random_14, true, LEFT, 2617, 1, 0, 1, 0
4,2018-07-29 03:47:58pm, STATIC, random_14, false, RIGHT, 2817, 0, 0, 0, 0
5,2018-07-29 03:48:01pm, STATIC, random_14, true, LEFT, 2473, 0, 0, 0, 0
6,2018-07-29 03:48:03pm, STATIC, random_14, true, LEFT, 2329, 0, 0, 0, 0
7,2018-07-29 03:48:06pm, STATIC, random_14, true, LEFT, 2287, 0, 0, 0, 0
8,2018-07-29 03:48:08pm, STATIC, random_14, false, RIGHT, 2208, 0, 0, 0, 0
9,2018-07-29 03:48:10pm, STATIC, random_14, false, RIGHT, 2286, 1, 0, 0, 1
10,2018-07-29 03:48:12pm, STATIC, random_14, true, LEFT, 2322, 0, 0, 0, 0
11,2018-07-29 03:48:15pm, STATIC, random_14, true, LEFT, 2208, 1, 1, 1, 1
12,2018-07-29 03:48:17pm, STATIC, random_14, true, LEFT, 2215, 0, 1, 0, 1
13,2018-07-29 03:48:19pm, STATIC, random_14, false, RIGHT, 2273, 0, 0, 0, 0
14,2018-07-29 03:48:21pm, STATIC, random_14, true, LEFT, 2291, 0, 0, 0, 0
15,2018-07-29 03:48:25pm, STATIC, random_14, true, LEFT, 3308, 0, 0, 0, 0
16,2018-07-29 03:48:27pm, STATIC, random_14, false, RIGHT, 2308, 0, 0, 0, 0
17,2018-07-29 03:48:29pm, STATIC, random_14, false, RIGHT, 2180, 0, 0, 0, 0
18,2018-07-29 03:48:31pm, STATIC, random_14, true, LEFT, 2248, 0, 0, 0, 0
19,2018-07-29 03:48:34pm, STATIC, random_14, true, LEFT, 2336, 0, 0, 0, 0
20,2018-07-29 03:48:41pm, STATIC, random_14, false, RIGHT, 7088, 0, 0, 0, 0
21,2018-07-29 03:48:43pm, STATIC, random_14, true, LEFT, 2312, 0, 1, 0, 1
22,2018-07-29 03:48:45pm, STATIC, random_14, true, LEFT, 2224, 0, 0, 0, 0
23,2018-07-29 03:48:48pm, STATIC, random_14, false, RIGHT, 2264, 1, 0, 0, 1
24,2018-07-29 03:48:50pm, STATIC, random_14, false, RIGHT, 2447, 1, 0, 0, 1
25,2018-07-29 03:48:52pm, STATIC, random_14, false, RIGHT, 2273, 0, 0, 0, 0
26,2018-07-29 03:48:55pm, STATIC, random_14, false, RIGHT, 2289, 1, 0, 0, 1
27,2018-07-29 03:48:57pm, STATIC, random_14, true, LEFT, 2256, 1, 1, 1, 1
28,2018-07-29 03:48:59pm, STATIC, random_14, false, RIGHT, 2191, 0, 0, 0, 0
29,2018-07-29 03:49:01pm, STATIC, random_14, false, RIGHT, 2088, 0, 1, 1, 0
30,2018-07-29 03:49:03pm, STATIC, random_14, true, LEFT, 2191, 0, 0, 0, 0
31,2018-07-29 03:49:05pm, STATIC, random_14, true, LEFT, 2153, 0, 0, 0, 0
32,2018-07-29 03:49:08pm, STATIC, random_14, false, RIGHT, 2528, 0, 0, 0, 0
33,2018-07-29 03:49:11pm, STATIC, random_14, true, LEFT, 2941, 1, 0, 1, 0
34,2018-07-29 03:49:13pm, STATIC, random_14, true, LEFT, 2243, 1, 0, 1, 0
35,2018-07-29 03:49:16pm, STATIC, random_14, false, RIGHT, 2424, 0, 0, 0, 0
36,2018-07-29 03:49:19pm, STATIC, random_14, true, LEFT, 2944, 0, 0, 0, 0
37,2018-07-29 03:49:21pm, STATIC, random_14, false, RIGHT, 2225, 1, 0, 0, 1
38,2018-07-29 03:49:23pm, STATIC, random_14, false, RIGHT, 2151, 1, 0, 0, 1
39,2018-07-29 03:49:25pm, STATIC, random_14, false, RIGHT, 2113, 0, 1, 1, 0
40,2018-07-29 03:49:27pm, STATIC, random_14, true, LEFT, 2215, 0, 0, 0, 0
41,2018-07-29 03:49:29pm, STATIC, random_14, true, LEFT, 2184, 1, 0, 1, 0
42,2018-07-29 03:49:32pm, STATIC, random_14, false, RIGHT, 2256, 0, 0, 0, 0
43,2018-07-29 03:49:34pm, STATIC, random_14, true, LEFT, 2224, 1, 0, 1, 0
44,2018-07-29 03:49:36pm, STATIC, random_14, true, LEFT, 2345, 0, 0, 0, 0
45,2018-07-29 03:49:39pm, STATIC, random_14, false, RIGHT, 2432, 0, 0, 0, 0
46,2018-07-29 03:49:41pm, STATIC, random_14, true, LEFT, 2215, 1, 1, 1, 1
47,2018-07-29 03:49:43pm, STATIC, random_14, true, LEFT, 2136, 0, 0, 0, 0
48,2018-07-29 03:49:45pm, STATIC, random_14, false, RIGHT, 2128, 1, 0, 0, 1
49,2018-07-29 03:49:47pm, STATIC, random_14, false, RIGHT, 2144, 1, 0, 0, 1
50,2018-07-29 03:49:50pm, STATIC, random_14, true, LEFT, 2255, 1, 0, 1, 0
51,2018-07-29 03:49:52pm, STATIC, random_14, false, RIGHT, 2273, 1, 1, 1, 1
52,2018-07-29 03:49:54pm, STATIC, random_14, false, RIGHT, 2216, 1, 0, 0, 1
53,2018-07-29 03:49:56pm, STATIC, random_14, false, RIGHT, 2057, 0, 1, 1, 0
54,2018-07-29 03:49:58pm, STATIC, random_14, true, LEFT, 2087, 0, 0, 0, 0
55,2018-07-29 03:50:01pm, STATIC, random_14, false, RIGHT, 2416, 1, 0, 0, 1
56,2018-07-29 03:50:03pm, STATIC, random_14, false, RIGHT, 2360, 0, 0, 0, 0
57,2018-07-29 03:50:05pm, STATIC, random_14, true, LEFT, 2128, 1, 0, 1, 0
58,2018-07-29 03:50:07pm, STATIC, random_14, true, LEFT, 2160, 0, 0, 0, 0
59,2018-07-29 03:50:10pm, STATIC, random_14, false, RIGHT, 2249, 1, 0, 0, 1
60,2018-07-29 03:50:12pm, STATIC, random_14, false, RIGHT, 2432, 0, 0, 0, 0
61,2018-07-29 03:50:14pm, STATIC, random_14, true, LEFT, 2166, 1, 0, 1, 0
62,2018-07-29 03:50:16pm, STATIC, random_14, true, LEFT, 2257, 1, 0, 1, 0
63,2018-07-29 03:50:19pm, STATIC, random_14, true, LEFT, 2297, 0, 0, 0, 0
64,2018-07-29 03:50:21pm, STATIC, random_14, false, RIGHT, 2055, 0, 0, 0, 0
65,2018-07-29 03:50:23pm, STATIC, random_14, true, LEFT, 2220, 0, 0, 0, 0
66,2018-07-29 03:50:25pm, STATIC, random_14, true, LEFT, 2172, 1, 0, 1, 0
67,2018-07-29 03:50:27pm, STATIC, random_14, false, RIGHT, 2049, 0, 0, 0, 0
68,2018-07-29 03:50:29pm, STATIC, random_14, true, LEFT, 2207, 0, 0, 0, 0
69,2018-07-29 03:50:32pm, STATIC, random_14, false, RIGHT, 2217, 0, 0, 0, 0
70,2018-07-29 03:50:34pm, STATIC, random_14, true, LEFT, 2144, 0, 0, 0, 0
71,2018-07-29 03:50:36pm, STATIC, random_14, true, LEFT, 2247, 0, 1, 0, 1
72,2018-07-29 03:50:38pm, STATIC, random_14, true, LEFT, 2304, 1, 0, 1, 0
73,2018-07-29 03:50:40pm, STATIC, random_14, true, LEFT, 2112, 1, 0, 1, 0
74,2018-07-29 03:50:43pm, STATIC, random_14, true, LEFT, 2185, 0, 0, 0, 0
75,2018-07-29 03:50:45pm, STATIC, random_14, false, RIGHT, 2255, 0, 0, 0, 0
76,2018-07-29 03:50:47pm, STATIC, random_14, true, LEFT, 2064, 1, 0, 1, 0
77,2018-07-29 03:50:49pm, STATIC, random_14, true, LEFT, 2313, 0, 0, 0, 0
78,2018-07-29 03:50:51pm, STATIC, random_14, false, RIGHT, 2128, 0, 0, 0, 0
79,2018-07-29 03:50:54pm, STATIC, random_14, true, LEFT, 2267, 0, 1, 0, 1
80,2018-07-29 03:50:56pm, STATIC, random_14, false, RIGHT, 2116, 1, 1, 1, 1
81,2018-07-29 03:50:58pm, STATIC, random_14, true, LEFT, 2200, 0, 1, 0, 1
82,2018-07-29 03:51:00pm, STATIC, random_14, false, RIGHT, 2080, 1, 0, 0, 1
83,2018-07-29 03:51:02pm, STATIC, random_14, false, RIGHT, 2275, 0, 0, 0, 0
84,2018-07-29 03:51:04pm, STATIC, random_14, true, LEFT, 2086, 1, 1, 1, 1
85,2018-07-29 03:51:07pm, STATIC, random_14, true, LEFT, 2144, 0, 0, 0, 0
86,2018-07-29 03:51:09pm, STATIC, random_14, false, RIGHT, 2495, 0, 0, 0, 0
87,2018-07-29 03:51:11pm, STATIC, random_14, true, LEFT, 2352, 0, 0, 0, 0
88,2018-07-29 03:51:14pm, STATIC, random_14, true, LEFT, 2305, 0, 0, 0, 0
89,2018-07-29 03:51:16pm, STATIC, random_14, false, RIGHT, 2214, 0, 0, 0, 0
90,2018-07-29 03:51:18pm, STATIC, random_14, false, RIGHT, 2209, 0, 1, 1, 0
91,2018-07-29 03:51:20pm, STATIC, random_14, true, LEFT, 2319, 1, 0, 1, 0
92,2018-07-29 03:51:23pm, STATIC, random_14, true, LEFT, 2242, 0, 0, 0, 0
93,2018-07-29 03:51:25pm, STATIC, random_14, false, RIGHT, 2256, 0, 0, 0, 0
94,2018-07-29 03:51:27pm, STATIC, random_14, true, LEFT, 2175, 0, 1, 0, 1
95,2018-07-29 03:51:29pm, STATIC, random_14, true, LEFT, 2121, 0, 0, 0, 0
96,2018-07-29 03:51:32pm, STATIC, random_14, true, LEFT, 2304, 0, 1, 0, 1
97,2018-07-29 03:51:34pm, STATIC, random_14, false, RIGHT, 2160, 0, 0, 0, 0
98,2018-07-29 03:51:36pm, STATIC, random_14, true, LEFT, 2136, 0, 0, 0, 0
