[{"RT":9135,"time": "2018-07-29 03:45:03pm", "schedule_type": "STATIC", "schedule_name": "random_14", "is_biased_choice":true,"side_choice": "LEFT", "trial_number":0,"observed_reward":0,"unobserved_reward":0},{"RT":4303,"time": "2018-07-29 03:45:07pm", "schedule_type": "STATIC", "schedule_name": "random_14", "is_biased_choice":false,"side_choice": "RIGHT", "trial_number":1,"observed_reward":0,"unobserved_reward":0},{"RT":2984,"time": "2018-07-29 03:45:10pm", "schedule_type": "STATIC", "schedule_name": "random_14", "is_biased_choice":true,"side_choice": "LEFT", "trial_number":2,"observed_reward":1,"unobserved_reward":0},{"RT":3480,"time": "2018-07-29 03:45:14pm", "schedule_type": "STATIC", "schedule_name": "random_14", "is_biased_choice":true,"side_choice": "LEFT", "trial_number":3,"observed_reward":1,"unobserved_reward":0},{"RT":2968,"time": "2018-07-29 03:45:17pm", "schedule_type": "STATIC", "schedule_name": "random_14", "is_biased_choice":true,"side_choice": "LEFT", "trial_number":4,"observed_reward":0,"unobserved_reward":0},{"RT":4184,"time": "2018-07-29 03:45:21pm", "schedule_type": "STATIC", "schedule_name": "random_14", "is_biased_choice":true,"side_choice": "LEFT", "trial_number":5,"observed_reward":0,"unobserved_reward":0},{"RT":2424,"time": "2018-07-29 03:45:23pm", "schedule_type": "STATIC", "schedule_name": "random_14", "is_biased_choice":false,"side_choice": "RIGHT", "trial_number":6,"observed_reward":0,"unobserved_reward":0},{"RT":4103,"time": "2018-07-29 03:45:28pm", "schedule_type": "STATIC", "schedule_name": "random_14", "is_biased_choice":true,"side_choice": "LEFT", "trial_number":7,"observed_reward":0,"unobserved_reward":0},{"RT":3016,"time": "2018-07-29 03:45:30pm", "schedule_type": "STATIC", "schedule_name": "random_14", "is_biased_choice":true,"side_choice": "LEFT", "trial_number":8,"observed_reward":0,"unobserved_reward":0},{"RT":2473,"time": "2018-07-29 03:45:33pm", "schedule_type": "STATIC", "schedule_name": "random_14", "is_biased_choice":true,"side_choice": "LEFT", "trial_number":9,"observed_reward":0,"unobserved_reward":1},{"RT":2727,"time": "2018-07-29 03:45:36pm", "schedule_type": "STATIC", "schedule_name": "random_14", "is_biased_choice":true,"side_choice": "LEFT", "trial_number":10,"observed_reward":0,"unobserved_reward":0},{"RT":2552,"time": "2018-07-29 03:45:38pm", "schedule_type": "STATIC", "schedule_name": "random_14", "is_biased_choice":false,"side_choice": "RIGHT", "trial_number":11,"observed_reward":1,"unobserved_reward":1},{"RT":2768,"time": "2018-07-29 03:45:41pm", "schedule_type": "STATIC", "schedule_name": "random_14", "is_biased_choice":false,"side_choice": "RIGHT", "trial_number":12,"observed_reward":1,"unobserved_reward":0},{"RT":3256,"time": "2018-07-29 03:45:44pm", "schedule_type": "STATIC", "schedule_name": "random_14", "is_biased_choice":false,"side_choice": "RIGHT", "trial_number":13,"observed_reward":0,"unobserved_reward":0},{"RT":2747,"time": "2018-07-29 03:45:47pm", "schedule_type": "STATIC", "schedule_name": "random_14", "is_biased_choice":true,"side_choice": "LEFT", "trial_number":14,"observed_reward":0,"unobserved_reward":0},{"RT":2799,"time": "2018-07-29 03:45:50pm", "schedule_type": "STATIC", "schedule_name": "random_14", "is_biased_choice":false,"side_choice": "RIGHT", "trial_number":15,"observed_reward":0,"unobserved_reward":0},{"RT":2488,"time": "2018-07-29 03:45:52pm", "schedule_type": "STATIC", "schedule_name": "random_14", "is_biased_choice":false,"side_choice": "RIGHT", "trial_number":16,"observed_reward":0,"unobserved_reward":0},{"RT":2736,"time": "2018-07-29 03:45:55pm", "schedule_type": "STATIC", "schedule_name": "random_14", "is_biased_choice":true,"side_choice": "LEFT", "trial_number":17,"observed_reward":0,"unobserved_reward":0},{"RT":3144,"time": "2018-07-29 03:45:58pm", "schedule_type": "STATIC", "schedule_name": "random_14", "is_biased_choice":false,"side_choice": "RIGHT", "trial_number":18,"observed_reward":0,"unobserved_reward":0},{"RT":2488,"time": "2018-07-29 03:46:00pm", "schedule_type": "STATIC", "schedule_name": "random_14", "is_biased_choice":false,"side_choice": "RIGHT", "trial_number":19,"observed_reward":0,"unobserved_reward":0},{"RT":2464,"time": "2018-07-29 03:46:03pm", "schedule_type": "STATIC", "schedule_name": "random_14", "is_biased_choice":false,"side_choice": "RIGHT", "trial_number":20,"observed_reward":0,"unobserved_reward":0},{"RT":2504,"time": "2018-07-29 03:46:05pm", "schedule_type": "STATIC", "schedule_name": "random_14", "is_biased_choice":true,"side_choice": "LEFT", "trial_number":21,"observed_reward":0,"unobserved_reward":1},{"RT":3456,"time": "2018-07-29 03:46:09pm", "schedule_type": "STATIC", "schedule_name": "random_14", "is_biased_choice":true,"side_choice": "LEFT", "trial_number":22,"observed_reward":0,"unobserved_reward":0},{"RT":4280,"time": "2018-07-29 03:46:13pm", "schedule_type": "STATIC", "schedule_name": "random_14", "is_biased_choice":false,"side_choice": "RIGHT", "trial_number":23,"observed_reward":1,"unobserved_reward":0},{"RT":2528,"time": "2018-07-29 03:46:16pm", "schedule_type": "STATIC", "schedule_name": "random_14", "is_biased_choice":true,"side_choice": "LEFT", "trial_number":24,"observed_reward":0,"unobserved_reward":1},{"RT":2491,"time": "2018-07-29 03:46:18pm", "schedule_type": "STATIC", "schedule_name": "random_14", "is_biased_choice":true,"side_choice": "LEFT", "trial_number":25,"observed_reward":0,"unobserved_reward":0},{"RT":2972,"time": "2018-07-29 03:46:21pm", "schedule_type": "STATIC", "schedule_name": "random_14", "is_biased_choice":false,"side_choice": "RIGHT", "trial_number":26,"observed_reward":1,"unobserved_reward":0},{"RT":2520,"time": "2018-07-29 03:46:24pm", "schedule_type": "STATIC", "schedule_name": "random_14", "is_biased_choice":false,"side_choice": "RIGHT", "trial_number":27,"observed_reward":1,"unobserved_reward":1},{"RT":2506,"time": "2018-07-29 03:46:26pm", "schedule_type": "STATIC", "schedule_name": "random_14", "is_biased_choice":false,"side_choice": "RIGHT", "trial_number":28,"observed_reward":0,"unobserved_reward":0},{"RT":2550,"time": "2018-07-29 03:46:29pm", "schedule_type": "STATIC", "schedule_name": "random_14", "is_biased_choice":true,"side_choice": "LEFT", "trial_number":29,"observed_reward":1,"unobserved_reward":0},{"RT":2656,"time": "2018-07-29 03:46:31pm", "schedule_type": "STATIC", "schedule_name": "random_14", "is_biased_choice":true,"side_choice": "LEFT", "trial_number":30,"observed_reward":0,"unobserved_reward":0},{"RT":2528,"time": "2018-07-29 03:46:34pm", "schedule_type": "STATIC", "schedule_name": "random_14", "is_biased_choice":true,"side_choice": "LEFT", "trial_number":31,"observed_reward":0,"unobserved_reward":0},{"RT":2407,"time": "2018-07-29 03:46:36pm", "schedule_type": "STATIC", "schedule_name": "random_14", "is_biased_choice":false,"side_choice": "RIGHT", "trial_number":32,"observed_reward":0,"unobserved_reward":0},{"RT":2424,"time": "2018-07-29 03:46:39pm", "schedule_type": "STATIC", "schedule_name": "random_14", "is_biased_choice":false,"side_choice": "RIGHT", "trial_number":33,"observed_reward":0,"unobserved_reward":1},{"RT":2337,"time": "2018-07-29 03:46:41pm", "schedule_type": "STATIC", "schedule_name": "random_14", "is_biased_choice":true,"side_choice": "LEFT", "trial_number":34,"observed_reward":1,"unobserved_reward":0},{"RT":2703,"time": "2018-07-29 03:46:44pm", "schedule_type": "STATIC", "schedule_name": "random_14", "is_biased_choice":false,"side_choice": "RIGHT", "trial_number":35,"observed_reward":0,"unobserved_reward":0},{"RT":2545,"time": "2018-07-29 03:46:46pm", "schedule_type": "STATIC", "schedule_name": "random_14", "is_biased_choice":false,"side_choice": "RIGHT", "trial_number":36,"observed_reward":0,"unobserved_reward":0},{"RT":2272,"time": "2018-07-29 03:46:49pm", "schedule_type": "STATIC", "schedule_name": "random_14", "is_biased_choice":true,"side_choice": "LEFT", "trial_number":37,"observed_reward":0,"unobserved_reward":1},{"RT":2320,"time": "2018-07-29 03:46:51pm", "schedule_type": "STATIC", "schedule_name": "random_14", "is_biased_choice":false,"side_choice": "RIGHT", "trial_number":38,"observed_reward":1,"unobserved_reward":0},{"RT":3032,"time": "2018-07-29 03:46:54pm", "schedule_type": "STATIC", "schedule_name": "random_14", "is_biased_choice":true,"side_choice": "LEFT", "trial_number":39,"observed_reward":1,"unobserved_reward":0},{"RT":3583,"time": "2018-07-29 03:46:58pm", "schedule_type": "STATIC", "schedule_name": "random_14", "is_biased_choice":true,"side_choice": "LEFT", "trial_number":40,"observed_reward":0,"unobserved_reward":0},{"RT":2513,"time": "2018-07-29 03:47:00pm", "schedule_type": "STATIC", "schedule_name": "random_14", "is_biased_choice":false,"side_choice": "RIGHT", "trial_number":41,"observed_reward":0,"unobserved_reward":1},{"RT":2528,"time": "2018-07-29 03:47:03pm", "schedule_type": "STATIC", "schedule_name": "random_14", "is_biased_choice":true,"side_choice": "LEFT", "trial_number":42,"observed_reward":0,"unobserved_reward":0},{"RT":2400,"time": "2018-07-29 03:47:05pm", "schedule_type": "STATIC", "schedule_name": "random_14", "is_biased_choice":true,"side_choice": "LEFT", "trial_number":43,"observed_reward":1,"unobserved_reward":0},{"RT":2488,"time": "2018-07-29 03:47:07pm", "schedule_type": "STATIC", "schedule_name": "random_14", "is_biased_choice":false,"side_choice": "RIGHT", "trial_number":44,"observed_reward":0,"unobserved_reward":0},{"RT":2288,"time": "2018-07-29 03:47:10pm", "schedule_type": "STATIC", "schedule_name": "random_14", "is_biased_choice":false,"side_choice": "RIGHT", "trial_number":45,"observed_reward":0,"unobserved_reward":0},{"RT":2399,"time": "2018-07-29 03:47:12pm", "schedule_type": "STATIC", "schedule_name": "random_14", "is_biased_choice":false,"side_choice": "RIGHT", "trial_number":46,"observed_reward":1,"unobserved_reward":1},{"RT":2627,"time": "2018-07-29 03:47:15pm", "schedule_type": "STATIC", "schedule_name": "random_14", "is_biased_choice":false,"side_choice": "RIGHT", "trial_number":47,"observed_reward":0,"unobserved_reward":0},{"RT":2405,"time": "2018-07-29 03:47:17pm", "schedule_type": "STATIC", "schedule_name": "random_14", "is_biased_choice":false,"side_choice": "RIGHT", "trial_number":48,"observed_reward":1,"unobserved_reward":0},{"RT":2776,"time": "2018-07-29 03:47:20pm", "schedule_type": "STATIC", "schedule_name": "random_14", "is_biased_choice":false,"side_choice": "RIGHT", "trial_number":49,"observed_reward":1,"unobserved_reward":0},{"RT":2512,"time": "2018-07-29 03:47:22pm", "schedule_type": "STATIC", "schedule_name": "random_14", "is_biased_choice":false,"side_choice": "RIGHT", "trial_number":50,"observed_reward":0,"unobserved_reward":1},{"RT":2592,"time": "2018-07-29 03:47:25pm", "schedule_type": "STATIC", "schedule_name": "random_14", "is_biased_choice":true,"side_choice": "LEFT", "trial_number":51,"observed_reward":1,"unobserved_reward":1},{"RT":2504,"time": "2018-07-29 03:47:28pm", "schedule_type": "STATIC", "schedule_name": "random_14", "is_biased_choice":true,"side_choice": "LEFT", "trial_number":52,"observed_reward":0,"unobserved_reward":1},{"RT":2592,"time": "2018-07-29 03:47:30pm", "schedule_type": "STATIC", "schedule_name": "random_14", "is_biased_choice":true,"side_choice": "LEFT", "trial_number":53,"observed_reward":1,"unobserved_reward":0},{"RT":2600,"time": "2018-07-29 03:47:33pm", "schedule_type": "STATIC", "schedule_name": "random_14", "is_biased_choice":true,"side_choice": "LEFT", "trial_number":54,"observed_reward":0,"unobserved_reward":0},{"RT":2512,"time": "2018-07-29 03:47:35pm", "schedule_type": "STATIC", "schedule_name": "random_14", "is_biased_choice":true,"side_choice": "LEFT", "trial_number":55,"observed_reward":0,"unobserved_reward":1},{"RT":2600,"time": "2018-07-29 03:47:38pm", "schedule_type": "STATIC", "schedule_name": "random_14", "is_biased_choice":false,"side_choice": "RIGHT", "trial_number":56,"observed_reward":0,"unobserved_reward":0},{"RT":2271,"time": "2018-07-29 03:47:40pm", "schedule_type": "STATIC", "schedule_name": "random_14", "is_biased_choice":false,"side_choice": "RIGHT", "trial_number":57,"observed_reward":0,"unobserved_reward":1},{"RT":2456,"time": "2018-07-29 03:47:43pm", "schedule_type": "STATIC", "schedule_name": "random_14", "is_biased_choice":true,"side_choice": "LEFT", "trial_number":58,"observed_reward":0,"unobserved_reward":0},{"RT":2688,"time": "2018-07-29 03:47:45pm", "schedule_type": "STATIC", "schedule_name": "random_14", "is_biased_choice":true,"side_choice": "LEFT", "trial_number":59,"observed_reward":0,"unobserved_reward":1},{"RT":2450,"time": "2018-07-29 03:47:48pm", "schedule_type": "STATIC", "schedule_name": "random_14", "is_biased_choice":true,"side_choice": "LEFT", "trial_number":60,"observed_reward":0,"unobserved_reward":0},{"RT":2504,"time": "2018-07-29 03:47:50pm", "schedule_type": "STATIC", "schedule_name": "random_14", "is_biased_choice":true,"side_choice": "LEFT", "trial_number":61,"observed_reward":1,"unobserved_reward":0},{"RT":2704,"time": "2018-07-29 03:47:53pm", "schedule_type": "STATIC", "schedule_name": "random_14", "is_biased_choice":true,"side_choice": "LEFT", "trial_number":62,"observed_reward":1,"unobserved_reward":0},{"RT":2344,"time": "2018-07-29 03:47:55pm", "schedule_type": "STATIC", "schedule_name": "random_14", "is_biased_choice":false,"side_choice": "RIGHT", "trial_number":63,"observed_reward":0,"unobserved_reward":0},{"RT":2496,"time": "2018-07-29 03:47:58pm", "schedule_type": "STATIC", "schedule_name": "random_14", "is_biased_choice":false,"side_choice": "RIGHT", "trial_number":64,"observed_reward":0,"unobserved_reward":0},{"RT":55160,"time": "2018-07-29 03:48:53pm", "schedule_type": "STATIC", "schedule_name": "random_14", "is_biased_choice":false,"side_choice": "RIGHT", "trial_number":65,"observed_reward":0,"unobserved_reward":0},{"RT":11767,"time": "2018-07-29 03:49:05pm", "schedule_type": "STATIC", "schedule_name": "random_14", "is_biased_choice":false,"side_choice": "RIGHT", "trial_number":66,"observed_reward":0,"unobserved_reward":1},{"RT":2401,"time": "2018-07-29 03:49:07pm", "schedule_type": "STATIC", "schedule_name": "random_14", "is_biased_choice":true,"side_choice": "LEFT", "trial_number":67,"observed_reward":0,"unobserved_reward":0},{"RT":2319,"time": "2018-07-29 03:49:09pm", "schedule_type": "STATIC", "schedule_name": "random_14", "is_biased_choice":false,"side_choice": "RIGHT", "trial_number":68,"observed_reward":0,"unobserved_reward":0},{"RT":2384,"time": "2018-07-29 03:49:12pm", "schedule_type": "STATIC", "schedule_name": "random_14", "is_biased_choice":false,"side_choice": "RIGHT", "trial_number":69,"observed_reward":0,"unobserved_reward":0},{"RT":2456,"time": "2018-07-29 03:49:14pm", "schedule_type": "STATIC", "schedule_name": "random_14", "is_biased_choice":false,"side_choice": "RIGHT", "trial_number":70,"observed_reward":0,"unobserved_reward":0},{"RT":2408,"time": "2018-07-29 03:49:17pm", "schedule_type": "STATIC", "schedule_name": "random_14", "is_biased_choice":false,"side_choice": "RIGHT", "trial_number":71,"observed_reward":1,"unobserved_reward":0},{"RT":3129,"time": "2018-07-29 03:49:20pm", "schedule_type": "STATIC", "schedule_name": "random_14", "is_biased_choice":false,"side_choice": "RIGHT", "trial_number":72,"observed_reward":0,"unobserved_reward":1},{"RT":2614,"time": "2018-07-29 03:49:22pm", "schedule_type": "STATIC", "schedule_name": "random_14", "is_biased_choice":false,"side_choice": "RIGHT", "trial_number":73,"observed_reward":0,"unobserved_reward":1},{"RT":2545,"time": "2018-07-29 03:49:25pm", "schedule_type": "STATIC", "schedule_name": "random_14", "is_biased_choice":false,"side_choice": "RIGHT", "trial_number":74,"observed_reward":0,"unobserved_reward":0},{"RT":2271,"time": "2018-07-29 03:49:27pm", "schedule_type": "STATIC", "schedule_name": "random_14", "is_biased_choice":false,"side_choice": "RIGHT", "trial_number":75,"observed_reward":0,"unobserved_reward":0},{"RT":2480,"time": "2018-07-29 03:49:30pm", "schedule_type": "STATIC", "schedule_name": "random_14", "is_biased_choice":false,"side_choice": "RIGHT", "trial_number":76,"observed_reward":0,"unobserved_reward":1},{"RT":2273,"time": "2018-07-29 03:49:32pm", "schedule_type": "STATIC", "schedule_name": "random_14", "is_biased_choice":false,"side_choice": "RIGHT", "trial_number":77,"observed_reward":0,"unobserved_reward":0},{"RT":2400,"time": "2018-07-29 03:49:34pm", "schedule_type": "STATIC", "schedule_name": "random_14", "is_biased_choice":false,"side_choice": "RIGHT", "trial_number":78,"observed_reward":0,"unobserved_reward":0},{"RT":2495,"time": "2018-07-29 03:49:37pm", "schedule_type": "STATIC", "schedule_name": "random_14", "is_biased_choice":false,"side_choice": "RIGHT", "trial_number":79,"observed_reward":1,"unobserved_reward":0},{"RT":2792,"time": "2018-07-29 03:49:40pm", "schedule_type": "STATIC", "schedule_name": "random_14", "is_biased_choice":false,"side_choice": "RIGHT", "trial_number":80,"observed_reward":1,"unobserved_reward":1},{"RT":2416,"time": "2018-07-29 03:49:42pm", "schedule_type": "STATIC", "schedule_name": "random_14", "is_biased_choice":false,"side_choice": "RIGHT", "trial_number":81,"observed_reward":1,"unobserved_reward":0},{"RT":2487,"time": "2018-07-29 03:49:45pm", "schedule_type": "STATIC", "schedule_name": "random_14", "is_biased_choice":false,"side_choice": "RIGHT", "trial_number":82,"observed_reward":1,"unobserved_reward":0},{"RT":2849,"time": "2018-07-29 03:49:47pm", "schedule_type": "STATIC", "schedule_name": "random_14", "is_biased_choice":false,"side_choice": "RIGHT", "trial_number":83,"observed_reward":0,"unobserved_reward":0},{"RT":2410,"time": "2018-07-29 03:49:50pm", "schedule_type": "STATIC", "schedule_name": "random_14", "is_biased_choice":true,"side_choice": "LEFT", "trial_number":84,"observed_reward":1,"unobserved_reward":1},{"RT":2487,"time": "2018-07-29 03:49:52pm", "schedule_type": "STATIC", "schedule_name": "random_14", "is_biased_choice":true,"side_choice": "LEFT", "trial_number":85,"observed_reward":0,"unobserved_reward":0},{"RT":2409,"time": "2018-07-29 03:49:55pm", "schedule_type": "STATIC", "schedule_name": "random_14", "is_biased_choice":true,"side_choice": "LEFT", "trial_number":86,"observed_reward":0,"unobserved_reward":0},{"RT":2848,"time": "2018-07-29 03:49:58pm", "schedule_type": "STATIC", "schedule_name": "random_14", "is_biased_choice":false,"side_choice": "RIGHT", "trial_number":87,"observed_reward":0,"unobserved_reward":0},{"RT":2479,"time": "2018-07-29 03:50:00pm", "schedule_type": "STATIC", "schedule_name": "random_14", "is_biased_choice":true,"side_choice": "LEFT", "trial_number":88,"observed_reward":0,"unobserved_reward":0},{"RT":2393,"time": "2018-07-29 03:50:02pm", "schedule_type": "STATIC", "schedule_name": "random_14", "is_biased_choice":false,"side_choice": "RIGHT", "trial_number":89,"observed_reward":0,"unobserved_reward":0},{"RT":2456,"time": "2018-07-29 03:50:05pm", "schedule_type": "STATIC", "schedule_name": "random_14", "is_biased_choice":true,"side_choice": "LEFT", "trial_number":90,"observed_reward":1,"unobserved_reward":0},{"RT":2392,"time": "2018-07-29 03:50:07pm", "schedule_type": "STATIC", "schedule_name": "random_14", "is_biased_choice":false,"side_choice": "RIGHT", "trial_number":91,"observed_reward":0,"unobserved_reward":1},{"RT":2391,"time": "2018-07-29 03:50:10pm", "schedule_type": "STATIC", "schedule_name": "random_14", "is_biased_choice":true,"side_choice": "LEFT", "trial_number":92,"observed_reward":0,"unobserved_reward":0},{"RT":2712,"time": "2018-07-29 03:50:12pm", "schedule_type": "STATIC", "schedule_name": "random_14", "is_biased_choice":false,"side_choice": "RIGHT", "trial_number":93,"observed_reward":0,"unobserved_reward":0},{"RT":2536,"time": "2018-07-29 03:50:15pm", "schedule_type": "STATIC", "schedule_name": "random_14", "is_biased_choice":true,"side_choice": "LEFT", "trial_number":94,"observed_reward":0,"unobserved_reward":1},{"RT":2680,"time": "2018-07-29 03:50:18pm", "schedule_type": "STATIC", "schedule_name": "random_14", "is_biased_choice":false,"side_choice": "RIGHT", "trial_number":95,"observed_reward":0,"unobserved_reward":0},{"RT":2592,"time": "2018-07-29 03:50:20pm", "schedule_type": "STATIC", "schedule_name": "random_14", "is_biased_choice":true,"side_choice": "LEFT", "trial_number":96,"observed_reward":0,"unobserved_reward":1},{"RT":2576,"time": "2018-07-29 03:50:23pm", "schedule_type": "STATIC", "schedule_name": "random_14", "is_biased_choice":false,"side_choice": "RIGHT", "trial_number":97,"observed_reward":0,"unobserved_reward":0},{"RT":2439,"time": "2018-07-29 03:50:25pm", "schedule_type": "STATIC", "schedule_name": "random_14", "is_biased_choice":false,"side_choice": "RIGHT", "trial_number":98,"observed_reward":0,"unobserved_reward":0},{"RT":2369,"time": "2018-07-29 03:50:28pm", "schedule_type": "STATIC", "schedule_name": "random_14", "is_biased_choice":false,"side_choice": "RIGHT", "trial_number":99,"observed_reward":0,"unobserved_reward":0}]