[{"RT":10889,"time": "2018-08-15 05:31:42pm", "schedule_type": "STATIC", "schedule_name": "random_14", "is_biased_choice":false,"side_choice": "RIGHT", "trial_number":0,"observed_reward":0,"unobserved_reward":0},{"RT":10906,"time": "2018-08-15 05:31:53pm", "schedule_type": "STATIC", "schedule_name": "random_14", "is_biased_choice":false,"side_choice": "RIGHT", "trial_number":1,"observed_reward":0,"unobserved_reward":0},{"RT":3191,"time": "2018-08-15 05:31:59pm", "schedule_type": "STATIC", "schedule_name": "random_14", "is_biased_choice":true,"side_choice": "LEFT", "trial_number":2,"observed_reward":1,"unobserved_reward":0},{"RT":3000,"time": "2018-08-15 05:32:04pm", "schedule_type": "STATIC", "schedule_name": "random_14", "is_biased_choice":true,"side_choice": "LEFT", "trial_number":3,"observed_reward":1,"unobserved_reward":0},{"RT":2581,"time": "2018-08-15 05:32:11pm", "schedule_type": "STATIC", "schedule_name": "random_14", "is_biased_choice":false,"side_choice": "RIGHT", "trial_number":4,"observed_reward":0,"unobserved_reward":0},{"RT":2535,"time": "2018-08-15 05:32:11pm", "schedule_type": "STATIC", "schedule_name": "random_14", "is_biased_choice":true,"side_choice": "LEFT", "trial_number":5,"observed_reward":0,"unobserved_reward":0},{"RT":3500,"time": "2018-08-15 05:32:11pm", "schedule_type": "STATIC", "schedule_name": "random_14", "is_biased_choice":true,"side_choice": "LEFT", "trial_number":6,"observed_reward":0,"unobserved_reward":0},{"RT":2681,"time": "2018-08-15 05:32:13pm", "schedule_type": "STATIC", "schedule_name": "random_14", "is_biased_choice":true,"side_choice": "LEFT", "trial_number":7,"observed_reward":0,"unobserved_reward":0},{"RT":3451,"time": "2018-08-15 05:32:13pm", "schedule_type": "STATIC", "schedule_name": "random_14", "is_biased_choice":false,"side_choice": "RIGHT", "trial_number":8,"observed_reward":0,"unobserved_reward":0},{"RT":2858,"time": "2018-08-15 05:32:16pm", "schedule_type": "STATIC", "schedule_name": "random_14", "is_biased_choice":false,"side_choice": "RIGHT", "trial_number":9,"observed_reward":1,"unobserved_reward":0},{"RT":2443,"time": "2018-08-15 05:32:19pm", "schedule_type": "STATIC", "schedule_name": "random_14", "is_biased_choice":true,"side_choice": "LEFT", "trial_number":10,"observed_reward":0,"unobserved_reward":0},{"RT":3132,"time": "2018-08-15 05:32:21pm", "schedule_type": "STATIC", "schedule_name": "random_14", "is_biased_choice":false,"side_choice": "RIGHT", "trial_number":11,"observed_reward":1,"unobserved_reward":1},{"RT":3216,"time": "2018-08-15 05:32:25pm", "schedule_type": "STATIC", "schedule_name": "random_14", "is_biased_choice":true,"side_choice": "LEFT", "trial_number":12,"observed_reward":0,"unobserved_reward":1},{"RT":2684,"time": "2018-08-15 05:32:27pm", "schedule_type": "STATIC", "schedule_name": "random_14", "is_biased_choice":false,"side_choice": "RIGHT", "trial_number":13,"observed_reward":0,"unobserved_reward":0},{"RT":10943,"time": "2018-08-15 05:32:39pm", "schedule_type": "STATIC", "schedule_name": "random_14", "is_biased_choice":false,"side_choice": "RIGHT", "trial_number":14,"observed_reward":0,"unobserved_reward":0},{"RT":4733,"time": "2018-08-15 05:32:43pm", "schedule_type": "STATIC", "schedule_name": "random_14", "is_biased_choice":false,"side_choice": "RIGHT", "trial_number":15,"observed_reward":0,"unobserved_reward":0},{"RT":3141,"time": "2018-08-15 05:32:46pm", "schedule_type": "STATIC", "schedule_name": "random_14", "is_biased_choice":false,"side_choice": "RIGHT", "trial_number":16,"observed_reward":0,"unobserved_reward":0},{"RT":6633,"time": "2018-08-15 05:32:53pm", "schedule_type": "STATIC", "schedule_name": "random_14", "is_biased_choice":false,"side_choice": "RIGHT", "trial_number":17,"observed_reward":0,"unobserved_reward":0},{"RT":2533,"time": "2018-08-15 05:32:55pm", "schedule_type": "STATIC", "schedule_name": "random_14", "is_biased_choice":false,"side_choice": "RIGHT", "trial_number":18,"observed_reward":0,"unobserved_reward":0},{"RT":2482,"time": "2018-08-15 05:32:58pm", "schedule_type": "STATIC", "schedule_name": "random_14", "is_biased_choice":false,"side_choice": "RIGHT", "trial_number":19,"observed_reward":0,"unobserved_reward":0},{"RT":2784,"time": "2018-08-15 05:33:01pm", "schedule_type": "STATIC", "schedule_name": "random_14", "is_biased_choice":false,"side_choice": "RIGHT", "trial_number":20,"observed_reward":0,"unobserved_reward":0},{"RT":9517,"time": "2018-08-15 05:33:10pm", "schedule_type": "STATIC", "schedule_name": "random_14", "is_biased_choice":true,"side_choice": "LEFT", "trial_number":21,"observed_reward":0,"unobserved_reward":1},{"RT":2914,"time": "2018-08-15 05:33:13pm", "schedule_type": "STATIC", "schedule_name": "random_14", "is_biased_choice":false,"side_choice": "RIGHT", "trial_number":22,"observed_reward":0,"unobserved_reward":0},{"RT":2349,"time": "2018-08-15 05:33:16pm", "schedule_type": "STATIC", "schedule_name": "random_14", "is_biased_choice":false,"side_choice": "RIGHT", "trial_number":23,"observed_reward":1,"unobserved_reward":0},{"RT":4068,"time": "2018-08-15 05:33:20pm", "schedule_type": "STATIC", "schedule_name": "random_14", "is_biased_choice":true,"side_choice": "LEFT", "trial_number":24,"observed_reward":0,"unobserved_reward":1},{"RT":2300,"time": "2018-08-15 05:33:22pm", "schedule_type": "STATIC", "schedule_name": "random_14", "is_biased_choice":false,"side_choice": "RIGHT", "trial_number":25,"observed_reward":0,"unobserved_reward":0},{"RT":2284,"time": "2018-08-15 05:33:24pm", "schedule_type": "STATIC", "schedule_name": "random_14", "is_biased_choice":false,"side_choice": "RIGHT", "trial_number":26,"observed_reward":1,"unobserved_reward":0},{"RT":2676,"time": "2018-08-15 05:33:27pm", "schedule_type": "STATIC", "schedule_name": "random_14", "is_biased_choice":true,"side_choice": "LEFT", "trial_number":27,"observed_reward":1,"unobserved_reward":1},{"RT":2976,"time": "2018-08-15 05:33:30pm", "schedule_type": "STATIC", "schedule_name": "random_14", "is_biased_choice":true,"side_choice": "LEFT", "trial_number":28,"observed_reward":0,"unobserved_reward":0},{"RT":2216,"time": "2018-08-15 05:33:32pm", "schedule_type": "STATIC", "schedule_name": "random_14", "is_biased_choice":false,"side_choice": "RIGHT", "trial_number":29,"observed_reward":0,"unobserved_reward":1},{"RT":2681,"time": "2018-08-15 05:33:35pm", "schedule_type": "STATIC", "schedule_name": "random_14", "is_biased_choice":false,"side_choice": "RIGHT", "trial_number":30,"observed_reward":0,"unobserved_reward":0},{"RT":2249,"time": "2018-08-15 05:33:37pm", "schedule_type": "STATIC", "schedule_name": "random_14", "is_biased_choice":false,"side_choice": "RIGHT", "trial_number":31,"observed_reward":0,"unobserved_reward":0},{"RT":2070,"time": "2018-08-15 05:33:39pm", "schedule_type": "STATIC", "schedule_name": "random_14", "is_biased_choice":false,"side_choice": "RIGHT", "trial_number":32,"observed_reward":0,"unobserved_reward":0},{"RT":2234,"time": "2018-08-15 05:33:41pm", "schedule_type": "STATIC", "schedule_name": "random_14", "is_biased_choice":false,"side_choice": "RIGHT", "trial_number":33,"observed_reward":0,"unobserved_reward":1},{"RT":2150,"time": "2018-08-15 05:33:44pm", "schedule_type": "STATIC", "schedule_name": "random_14", "is_biased_choice":false,"side_choice": "RIGHT", "trial_number":34,"observed_reward":0,"unobserved_reward":1},{"RT":2131,"time": "2018-08-15 05:33:45pm", "schedule_type": "STATIC", "schedule_name": "random_14", "is_biased_choice":false,"side_choice": "RIGHT", "trial_number":35,"observed_reward":0,"unobserved_reward":0},{"RT":2218,"time": "2018-08-15 05:33:48pm", "schedule_type": "STATIC", "schedule_name": "random_14", "is_biased_choice":false,"side_choice": "RIGHT", "trial_number":36,"observed_reward":0,"unobserved_reward":0},{"RT":2232,"time": "2018-08-15 05:33:50pm", "schedule_type": "STATIC", "schedule_name": "random_14", "is_biased_choice":false,"side_choice": "RIGHT", "trial_number":37,"observed_reward":1,"unobserved_reward":0},{"RT":2247,"time": "2018-08-15 05:33:52pm", "schedule_type": "STATIC", "schedule_name": "random_14", "is_biased_choice":true,"side_choice": "LEFT", "trial_number":38,"observed_reward":0,"unobserved_reward":1},{"RT":2187,"time": "2018-08-15 05:33:54pm", "schedule_type": "STATIC", "schedule_name": "random_14", "is_biased_choice":false,"side_choice": "RIGHT", "trial_number":39,"observed_reward":0,"unobserved_reward":1},{"RT":2732,"time": "2018-08-15 05:33:57pm", "schedule_type": "STATIC", "schedule_name": "random_14", "is_biased_choice":false,"side_choice": "RIGHT", "trial_number":40,"observed_reward":0,"unobserved_reward":0},{"RT":2707,"time": "2018-08-15 05:34:00pm", "schedule_type": "STATIC", "schedule_name": "random_14", "is_biased_choice":false,"side_choice": "RIGHT", "trial_number":41,"observed_reward":0,"unobserved_reward":1},{"RT":12338,"time": "2018-08-15 05:34:12pm", "schedule_type": "STATIC", "schedule_name": "random_14", "is_biased_choice":false,"side_choice": "RIGHT", "trial_number":42,"observed_reward":0,"unobserved_reward":0},{"RT":2435,"time": "2018-08-15 05:34:14pm", "schedule_type": "STATIC", "schedule_name": "random_14", "is_biased_choice":false,"side_choice": "RIGHT", "trial_number":43,"observed_reward":0,"unobserved_reward":1},{"RT":2209,"time": "2018-08-15 05:34:18pm", "schedule_type": "STATIC", "schedule_name": "random_14", "is_biased_choice":false,"side_choice": "RIGHT", "trial_number":44,"observed_reward":0,"unobserved_reward":0},{"RT":3113,"time": "2018-08-15 05:34:20pm", "schedule_type": "STATIC", "schedule_name": "random_14", "is_biased_choice":false,"side_choice": "RIGHT", "trial_number":45,"observed_reward":0,"unobserved_reward":0},{"RT":2871,"time": "2018-08-15 05:34:23pm", "schedule_type": "STATIC", "schedule_name": "random_14", "is_biased_choice":false,"side_choice": "RIGHT", "trial_number":46,"observed_reward":1,"unobserved_reward":1},{"RT":2153,"time": "2018-08-15 05:34:25pm", "schedule_type": "STATIC", "schedule_name": "random_14", "is_biased_choice":true,"side_choice": "LEFT", "trial_number":47,"observed_reward":0,"unobserved_reward":0},{"RT":2074,"time": "2018-08-15 05:34:27pm", "schedule_type": "STATIC", "schedule_name": "random_14", "is_biased_choice":false,"side_choice": "RIGHT", "trial_number":48,"observed_reward":1,"unobserved_reward":0},{"RT":2767,"time": "2018-08-15 05:34:30pm", "schedule_type": "STATIC", "schedule_name": "random_14", "is_biased_choice":true,"side_choice": "LEFT", "trial_number":49,"observed_reward":0,"unobserved_reward":1},{"RT":2515,"time": "2018-08-15 05:34:32pm", "schedule_type": "STATIC", "schedule_name": "random_14", "is_biased_choice":false,"side_choice": "RIGHT", "trial_number":50,"observed_reward":0,"unobserved_reward":1},{"RT":2118,"time": "2018-08-15 05:34:35pm", "schedule_type": "STATIC", "schedule_name": "random_14", "is_biased_choice":false,"side_choice": "RIGHT", "trial_number":51,"observed_reward":1,"unobserved_reward":1},{"RT":2283,"time": "2018-08-15 05:34:37pm", "schedule_type": "STATIC", "schedule_name": "random_14", "is_biased_choice":true,"side_choice": "LEFT", "trial_number":52,"observed_reward":0,"unobserved_reward":1},{"RT":2465,"time": "2018-08-15 05:34:39pm", "schedule_type": "STATIC", "schedule_name": "random_14", "is_biased_choice":false,"side_choice": "RIGHT", "trial_number":53,"observed_reward":0,"unobserved_reward":1},{"RT":2632,"time": "2018-08-15 05:34:42pm", "schedule_type": "STATIC", "schedule_name": "random_14", "is_biased_choice":false,"side_choice": "RIGHT", "trial_number":54,"observed_reward":0,"unobserved_reward":0},{"RT":2836,"time": "2018-08-15 05:34:45pm", "schedule_type": "STATIC", "schedule_name": "random_14", "is_biased_choice":false,"side_choice": "RIGHT", "trial_number":55,"observed_reward":1,"unobserved_reward":0},{"RT":2615,"time": "2018-08-15 05:34:47pm", "schedule_type": "STATIC", "schedule_name": "random_14", "is_biased_choice":true,"side_choice": "LEFT", "trial_number":56,"observed_reward":0,"unobserved_reward":0},{"RT":2100,"time": "2018-08-15 05:34:50pm", "schedule_type": "STATIC", "schedule_name": "random_14", "is_biased_choice":false,"side_choice": "RIGHT", "trial_number":57,"observed_reward":0,"unobserved_reward":1},{"RT":2720,"time": "2018-08-15 05:34:52pm", "schedule_type": "STATIC", "schedule_name": "random_14", "is_biased_choice":false,"side_choice": "RIGHT", "trial_number":58,"observed_reward":0,"unobserved_reward":0},{"RT":2247,"time": "2018-08-15 05:34:54pm", "schedule_type": "STATIC", "schedule_name": "random_14", "is_biased_choice":false,"side_choice": "RIGHT", "trial_number":59,"observed_reward":1,"unobserved_reward":0},{"RT":3484,"time": "2018-08-15 05:34:58pm", "schedule_type": "STATIC", "schedule_name": "random_14", "is_biased_choice":true,"side_choice": "LEFT", "trial_number":60,"observed_reward":0,"unobserved_reward":0},{"RT":17744,"time": "2018-08-15 05:35:16pm", "schedule_type": "STATIC", "schedule_name": "random_14", "is_biased_choice":false,"side_choice": "RIGHT", "trial_number":61,"observed_reward":0,"unobserved_reward":1},{"RT":2183,"time": "2018-08-15 05:35:18pm", "schedule_type": "STATIC", "schedule_name": "random_14", "is_biased_choice":false,"side_choice": "RIGHT", "trial_number":62,"observed_reward":0,"unobserved_reward":1},{"RT":2550,"time": "2018-08-15 05:35:20pm", "schedule_type": "STATIC", "schedule_name": "random_14", "is_biased_choice":false,"side_choice": "RIGHT", "trial_number":63,"observed_reward":0,"unobserved_reward":0},{"RT":2925,"time": "2018-08-15 05:35:23pm", "schedule_type": "STATIC", "schedule_name": "random_14", "is_biased_choice":false,"side_choice": "RIGHT", "trial_number":64,"observed_reward":0,"unobserved_reward":0},{"RT":2297,"time": "2018-08-15 05:35:26pm", "schedule_type": "STATIC", "schedule_name": "random_14", "is_biased_choice":false,"side_choice": "RIGHT", "trial_number":65,"observed_reward":0,"unobserved_reward":0},{"RT":3082,"time": "2018-08-15 05:35:29pm", "schedule_type": "STATIC", "schedule_name": "random_14", "is_biased_choice":false,"side_choice": "RIGHT", "trial_number":66,"observed_reward":0,"unobserved_reward":1},{"RT":2186,"time": "2018-08-15 05:35:31pm", "schedule_type": "STATIC", "schedule_name": "random_14", "is_biased_choice":false,"side_choice": "RIGHT", "trial_number":67,"observed_reward":0,"unobserved_reward":0},{"RT":2199,"time": "2018-08-15 05:35:33pm", "schedule_type": "STATIC", "schedule_name": "random_14", "is_biased_choice":false,"side_choice": "RIGHT", "trial_number":68,"observed_reward":0,"unobserved_reward":0},{"RT":2136,"time": "2018-08-15 05:35:35pm", "schedule_type": "STATIC", "schedule_name": "random_14", "is_biased_choice":false,"side_choice": "RIGHT", "trial_number":69,"observed_reward":0,"unobserved_reward":0},{"RT":5569,"time": "2018-08-15 05:35:41pm", "schedule_type": "STATIC", "schedule_name": "random_14", "is_biased_choice":false,"side_choice": "RIGHT", "trial_number":70,"observed_reward":0,"unobserved_reward":0},{"RT":2241,"time": "2018-08-15 05:35:43pm", "schedule_type": "STATIC", "schedule_name": "random_14", "is_biased_choice":false,"side_choice": "RIGHT", "trial_number":71,"observed_reward":1,"unobserved_reward":0},{"RT":2134,"time": "2018-08-15 05:35:45pm", "schedule_type": "STATIC", "schedule_name": "random_14", "is_biased_choice":true,"side_choice": "LEFT", "trial_number":72,"observed_reward":1,"unobserved_reward":0},{"RT":2183,"time": "2018-08-15 05:35:47pm", "schedule_type": "STATIC", "schedule_name": "random_14", "is_biased_choice":true,"side_choice": "LEFT", "trial_number":73,"observed_reward":1,"unobserved_reward":0},{"RT":2541,"time": "2018-08-15 05:35:50pm", "schedule_type": "STATIC", "schedule_name": "random_14", "is_biased_choice":true,"side_choice": "LEFT", "trial_number":74,"observed_reward":0,"unobserved_reward":0},{"RT":2328,"time": "2018-08-15 05:35:52pm", "schedule_type": "STATIC", "schedule_name": "random_14", "is_biased_choice":true,"side_choice": "LEFT", "trial_number":75,"observed_reward":0,"unobserved_reward":0},{"RT":2108,"time": "2018-08-15 05:35:54pm", "schedule_type": "STATIC", "schedule_name": "random_14", "is_biased_choice":false,"side_choice": "RIGHT", "trial_number":76,"observed_reward":0,"unobserved_reward":1},{"RT":2157,"time": "2018-08-15 05:35:56pm", "schedule_type": "STATIC", "schedule_name": "random_14", "is_biased_choice":false,"side_choice": "RIGHT", "trial_number":77,"observed_reward":0,"unobserved_reward":0},{"RT":2735,"time": "2018-08-15 05:35:59pm", "schedule_type": "STATIC", "schedule_name": "random_14", "is_biased_choice":false,"side_choice": "RIGHT", "trial_number":78,"observed_reward":0,"unobserved_reward":0},{"RT":2414,"time": "2018-08-15 05:36:01pm", "schedule_type": "STATIC", "schedule_name": "random_14", "is_biased_choice":false,"side_choice": "RIGHT", "trial_number":79,"observed_reward":1,"unobserved_reward":0},{"RT":2533,"time": "2018-08-15 05:36:04pm", "schedule_type": "STATIC", "schedule_name": "random_14", "is_biased_choice":true,"side_choice": "LEFT", "trial_number":80,"observed_reward":1,"unobserved_reward":1},{"RT":2469,"time": "2018-08-15 05:36:06pm", "schedule_type": "STATIC", "schedule_name": "random_14", "is_biased_choice":true,"side_choice": "LEFT", "trial_number":81,"observed_reward":0,"unobserved_reward":1},{"RT":2148,"time": "2018-08-15 05:36:09pm", "schedule_type": "STATIC", "schedule_name": "random_14", "is_biased_choice":false,"side_choice": "RIGHT", "trial_number":82,"observed_reward":1,"unobserved_reward":0},{"RT":3251,"time": "2018-08-15 05:36:12pm", "schedule_type": "STATIC", "schedule_name": "random_14", "is_biased_choice":true,"side_choice": "LEFT", "trial_number":83,"observed_reward":0,"unobserved_reward":0},{"RT":2302,"time": "2018-08-15 05:36:14pm", "schedule_type": "STATIC", "schedule_name": "random_14", "is_biased_choice":false,"side_choice": "RIGHT", "trial_number":84,"observed_reward":1,"unobserved_reward":1},{"RT":2230,"time": "2018-08-15 05:36:16pm", "schedule_type": "STATIC", "schedule_name": "random_14", "is_biased_choice":true,"side_choice": "LEFT", "trial_number":85,"observed_reward":0,"unobserved_reward":0},{"RT":2401,"time": "2018-08-15 05:36:19pm", "schedule_type": "STATIC", "schedule_name": "random_14", "is_biased_choice":false,"side_choice": "RIGHT", "trial_number":86,"observed_reward":0,"unobserved_reward":0},{"RT":2360,"time": "2018-08-15 05:36:21pm", "schedule_type": "STATIC", "schedule_name": "random_14", "is_biased_choice":false,"side_choice": "RIGHT", "trial_number":87,"observed_reward":0,"unobserved_reward":0},{"RT":2873,"time": "2018-08-15 05:36:24pm", "schedule_type": "STATIC", "schedule_name": "random_14", "is_biased_choice":false,"side_choice": "RIGHT", "trial_number":88,"observed_reward":0,"unobserved_reward":0},{"RT":10952,"time": "2018-08-15 05:36:35pm", "schedule_type": "STATIC", "schedule_name": "random_14", "is_biased_choice":false,"side_choice": "RIGHT", "trial_number":89,"observed_reward":0,"unobserved_reward":0},{"RT":2355,"time": "2018-08-15 05:36:37pm", "schedule_type": "STATIC", "schedule_name": "random_14", "is_biased_choice":false,"side_choice": "RIGHT", "trial_number":90,"observed_reward":0,"unobserved_reward":1},{"RT":2368,"time": "2018-08-15 05:36:40pm", "schedule_type": "STATIC", "schedule_name": "random_14", "is_biased_choice":false,"side_choice": "RIGHT", "trial_number":91,"observed_reward":0,"unobserved_reward":1},{"RT":2116,"time": "2018-08-15 05:36:42pm", "schedule_type": "STATIC", "schedule_name": "random_14", "is_biased_choice":false,"side_choice": "RIGHT", "trial_number":92,"observed_reward":0,"unobserved_reward":0},{"RT":2310,"time": "2018-08-15 05:36:44pm", "schedule_type": "STATIC", "schedule_name": "random_14", "is_biased_choice":false,"side_choice": "RIGHT", "trial_number":93,"observed_reward":0,"unobserved_reward":0},{"RT":2472,"time": "2018-08-15 05:36:46pm", "schedule_type": "STATIC", "schedule_name": "random_14", "is_biased_choice":false,"side_choice": "RIGHT", "trial_number":94,"observed_reward":1,"unobserved_reward":0},{"RT":2691,"time": "2018-08-15 05:36:50pm", "schedule_type": "STATIC", "schedule_name": "random_14", "is_biased_choice":true,"side_choice": "LEFT", "trial_number":95,"observed_reward":0,"unobserved_reward":0},{"RT":2403,"time": "2018-08-15 05:36:52pm", "schedule_type": "STATIC", "schedule_name": "random_14", "is_biased_choice":false,"side_choice": "RIGHT", "trial_number":96,"observed_reward":1,"unobserved_reward":0},{"RT":2115,"time": "2018-08-15 05:36:54pm", "schedule_type": "STATIC", "schedule_name": "random_14", "is_biased_choice":true,"side_choice": "LEFT", "trial_number":97,"observed_reward":0,"unobserved_reward":0},{"RT":2590,"time": "2018-08-15 05:36:56pm", "schedule_type": "STATIC", "schedule_name": "random_14", "is_biased_choice":false,"side_choice": "RIGHT", "trial_number":98,"observed_reward":0,"unobserved_reward":0},