trial_number, time, schedule_type, schedule_name, is_biased_choice, side_choice, RT, observed_reward, unobserved_reward, biased_reward, unbiased_reward
0,2018-08-15 05:28:12pm, STATIC, random_14, false, LEFT, 6242, 0, 0, 0, 0
1,2018-08-15 05:28:19pm, STATIC, random_14, true, RIGHT, 7544, 0, 0, 0, 0
2,2018-08-15 05:28:23pm, STATIC, random_14, false, LEFT, 2916, 0, 1, 1, 0
3,2018-08-15 05:28:25pm, STATIC, random_14, true, RIGHT, 3068, 1, 0, 1, 0
4,2018-08-15 05:28:30pm, STATIC, random_14, true, RIGHT, 4255, 0, 0, 0, 0
5,2018-08-15 05:28:32pm, STATIC, random_14, true, RIGHT, 2577, 0, 0, 0, 0
6,2018-08-15 05:28:35pm, STATIC, random_14, true, RIGHT, 2503, 0, 0, 0, 0
7,2018-08-15 05:28:37pm, STATIC, random_14, false, LEFT, 2656, 0, 0, 0, 0
8,2018-08-15 05:28:40pm, STATIC, random_14, true, RIGHT, 2696, 0, 0, 0, 0
9,2018-08-15 05:28:43pm, STATIC, random_14, false, LEFT, 2864, 1, 0, 0, 1
10,2018-08-15 05:28:46pm, STATIC, random_14, true, RIGHT, 2826, 0, 0, 0, 0
11,2018-08-15 05:28:48pm, STATIC, random_14, false, LEFT, 2624, 1, 1, 1, 1
12,2018-08-15 05:28:53pm, STATIC, random_14, false, LEFT, 4310, 1, 0, 0, 1
13,2018-08-15 05:28:56pm, STATIC, random_14, false, LEFT, 3353, 0, 0, 0, 0
14,2018-08-15 05:28:59pm, STATIC, random_14, true, RIGHT, 3044, 0, 0, 0, 0
15,2018-08-15 05:29:02pm, STATIC, random_14, true, RIGHT, 2855, 0, 0, 0, 0
16,2018-08-15 05:29:05pm, STATIC, random_14, false, LEFT, 2818, 0, 0, 0, 0
17,2018-08-15 05:29:08pm, STATIC, random_14, false, LEFT, 3017, 0, 0, 0, 0
18,2018-08-15 05:29:14pm, STATIC, random_14, true, RIGHT, 5883, 0, 0, 0, 0
19,2018-08-15 05:29:17pm, STATIC, random_14, false, LEFT, 3049, 0, 0, 0, 0
20,2018-08-15 05:29:20pm, STATIC, random_14, true, RIGHT, 3125, 0, 0, 0, 0
21,2018-08-15 05:29:22pm, STATIC, random_14, true, RIGHT, 2607, 0, 1, 0, 1
22,2018-08-15 05:29:26pm, STATIC, random_14, false, LEFT, 2719, 0, 0, 0, 0
23,2018-08-15 05:29:29pm, STATIC, random_14, false, LEFT, 4115, 1, 0, 0, 1
24,2018-08-15 05:29:32pm, STATIC, random_14, false, LEFT, 2934, 1, 0, 0, 1
25,2018-08-15 05:29:36pm, STATIC, random_14, true, RIGHT, 3600, 0, 0, 0, 0
26,2018-08-15 05:29:39pm, STATIC, random_14, false, LEFT, 3384, 1, 0, 0, 1
27,2018-08-15 05:29:42pm, STATIC, random_14, false, LEFT, 2971, 1, 1, 1, 1
28,2018-08-15 05:29:45pm, STATIC, random_14, false, LEFT, 2493, 0, 0, 0, 0
29,2018-08-15 05:29:47pm, STATIC, random_14, false, LEFT, 2334, 0, 1, 1, 0
30,2018-08-15 05:29:50pm, STATIC, random_14, true, RIGHT, 2717, 0, 0, 0, 0
31,2018-08-15 05:29:52pm, STATIC, random_14, false, LEFT, 2250, 0, 0, 0, 0
32,2018-08-15 05:29:55pm, STATIC, random_14, true, RIGHT, 2334, 0, 0, 0, 0
33,2018-08-15 05:29:57pm, STATIC, random_14, false, LEFT, 2782, 0, 1, 1, 0
34,2018-08-15 05:30:00pm, STATIC, random_14, false, LEFT, 2316, 0, 1, 1, 0
35,2018-08-15 05:30:02pm, STATIC, random_14, false, LEFT, 2518, 0, 0, 0, 0
36,2018-08-15 05:30:04pm, STATIC, random_14, false, LEFT, 2288, 0, 0, 0, 0
37,2018-08-15 05:30:07pm, STATIC, random_14, false, LEFT, 2495, 1, 0, 0, 1
38,2018-08-15 05:30:09pm, STATIC, random_14, false, LEFT, 2482, 1, 0, 0, 1
39,2018-08-15 05:30:12pm, STATIC, random_14, false, LEFT, 2433, 0, 1, 1, 0
40,2018-08-15 05:30:15pm, STATIC, random_14, true, RIGHT, 2660, 0, 0, 0, 0
41,2018-08-15 05:30:17pm, STATIC, random_14, true, RIGHT, 2390, 1, 0, 1, 0
42,2018-08-15 05:30:19pm, STATIC, random_14, true, RIGHT, 2501, 0, 0, 0, 0
43,2018-08-15 05:30:26pm, STATIC, random_14, true, RIGHT, 7150, 1, 0, 1, 0
44,2018-08-15 05:30:29pm, STATIC, random_14, true, RIGHT, 2405, 0, 0, 0, 0
45,2018-08-15 05:30:31pm, STATIC, random_14, false, LEFT, 2811, 0, 0, 0, 0
46,2018-08-15 05:30:34pm, STATIC, random_14, false, LEFT, 2267, 1, 1, 1, 1
47,2018-08-15 05:30:36pm, STATIC, random_14, false, LEFT, 2433, 0, 0, 0, 0
48,2018-08-15 05:30:39pm, STATIC, random_14, false, LEFT, 2483, 1, 0, 0, 1
49,2018-08-15 05:30:42pm, STATIC, random_14, false, LEFT, 2916, 1, 0, 0, 1
50,2018-08-15 05:30:44pm, STATIC, random_14, false, LEFT, 2549, 0, 1, 1, 0
51,2018-08-15 05:30:47pm, STATIC, random_14, false, LEFT, 2602, 1, 1, 1, 1
52,2018-08-15 05:30:50pm, STATIC, random_14, false, LEFT, 2496, 1, 0, 0, 1
53,2018-08-15 05:30:52pm, STATIC, random_14, false, LEFT, 2272, 0, 1, 1, 0
54,2018-08-15 05:30:54pm, STATIC, random_14, false, LEFT, 2315, 0, 0, 0, 0
55,2018-08-15 05:30:56pm, STATIC, random_14, false, LEFT, 2246, 1, 0, 0, 1
56,2018-08-15 05:30:59pm, STATIC, random_14, false, LEFT, 2362, 0, 0, 0, 0
57,2018-08-15 05:31:08pm, STATIC, random_14, false, LEFT, 9386, 0, 1, 1, 0
58,2018-08-15 05:31:11pm, STATIC, random_14, false, LEFT, 2523, 0, 0, 0, 0
59,2018-08-15 05:31:15pm, STATIC, random_14, false, LEFT, 4563, 1, 0, 0, 1
60,2018-08-15 05:31:18pm, STATIC, random_14, false, LEFT, 2385, 0, 0, 0, 0
61,2018-08-15 05:31:20pm, STATIC, random_14, false, LEFT, 2479, 0, 1, 1, 0
62,2018-08-15 05:31:23pm, STATIC, random_14, false, LEFT, 3137, 0, 1, 1, 0
63,2018-08-15 05:31:25pm, STATIC, random_14, false, LEFT, 2410, 0, 0, 0, 0
64,2018-08-15 05:31:28pm, STATIC, random_14, false, LEFT, 2771, 0, 0, 0, 0
65,2018-08-15 05:31:30pm, STATIC, random_14, false, LEFT, 2418, 0, 0, 0, 0
66,2018-08-15 05:31:33pm, STATIC, random_14, true, RIGHT, 2626, 1, 0, 1, 0
67,2018-08-15 05:31:35pm, STATIC, random_14, true, RIGHT, 2287, 0, 0, 0, 0
68,2018-08-15 05:31:38pm, STATIC, random_14, true, RIGHT, 2320, 0, 0, 0, 0
69,2018-08-15 05:31:40pm, STATIC, random_14, true, RIGHT, 2735, 0, 0, 0, 0
70,2018-08-15 05:31:43pm, STATIC, random_14, false, LEFT, 2482, 0, 0, 0, 0
71,2018-08-15 05:31:45pm, STATIC, random_14, false, LEFT, 2401, 1, 0, 0, 1
72,2018-08-15 05:31:49pm, STATIC, random_14, false, LEFT, 2894, 0, 1, 1, 0
73,2018-08-15 05:31:51pm, STATIC, random_14, false, LEFT, 2328, 0, 1, 1, 0
74,2018-08-15 05:31:53pm, STATIC, random_14, false, LEFT, 2394, 0, 0, 0, 0
75,2018-08-15 05:31:55pm, STATIC, random_14, false, LEFT, 2327, 0, 0, 0, 0
76,2018-08-15 05:31:58pm, STATIC, random_14, true, RIGHT, 2488, 1, 0, 1, 0
77,2018-08-15 05:32:00pm, STATIC, random_14, true, RIGHT, 2384, 0, 0, 0, 0
78,2018-08-15 05:32:03pm, STATIC, random_14, false, LEFT, 2301, 0, 0, 0, 0
79,2018-08-15 05:32:05pm, STATIC, random_14, false, LEFT, 2300, 1, 0, 0, 1
80,2018-08-15 05:32:07pm, STATIC, random_14, false, LEFT, 2333, 1, 1, 1, 1
81,2018-08-15 05:32:09pm, STATIC, random_14, true, RIGHT, 2399, 0, 1, 0, 1
82,2018-08-15 05:32:12pm, STATIC, random_14, false, LEFT, 2382, 1, 0, 0, 1
83,2018-08-15 05:32:14pm, STATIC, random_14, false, LEFT, 2351, 0, 0, 0, 0
84,2018-08-15 05:32:17pm, STATIC, random_14, false, LEFT, 2585, 1, 1, 1, 1
85,2018-08-15 05:32:20pm, STATIC, random_14, false, LEFT, 2915, 0, 0, 0, 0
86,2018-08-15 05:32:22pm, STATIC, random_14, false, LEFT, 2416, 0, 0, 0, 0
87,2018-08-15 05:32:24pm, STATIC, random_14, false, LEFT, 2266, 0, 0, 0, 0
88,2018-08-15 05:32:27pm, STATIC, random_14, true, RIGHT, 2171, 0, 0, 0, 0
89,2018-08-15 05:32:29pm, STATIC, random_14, false, LEFT, 2310, 0, 0, 0, 0
90,2018-08-15 05:32:31pm, STATIC, random_14, false, LEFT, 2237, 0, 1, 1, 0
91,2018-08-15 05:32:34pm, STATIC, random_14, false, LEFT, 2415, 0, 1, 1, 0
92,2018-08-15 05:32:36pm, STATIC, random_14, false, LEFT, 2300, 0, 0, 0, 0
93,2018-08-15 05:32:38pm, STATIC, random_14, true, RIGHT, 2250, 0, 0, 0, 0
94,2018-08-15 05:32:41pm, STATIC, random_14, true, RIGHT, 2332, 0, 1, 0, 1
95,2018-08-15 05:32:43pm, STATIC, random_14, true, RIGHT, 2436, 0, 0, 0, 0
96,2018-08-15 05:32:45pm, STATIC, random_14, true, RIGHT, 2279, 0, 1, 0, 1
97,2018-08-15 05:32:48pm, STATIC, random_14, false, LEFT, 2368, 0, 0, 0, 0
98,2018-08-15 05:32:50pm, STATIC, random_14, false, LEFT, 2285, 0, 0, 0, 0
99,2018-08-15 05:32:52pm, STATIC, random_14, true, RIGHT, 2362, 0, 0, 0, 0
