[{"RT":6242,"time": "2018-08-15 05:28:12pm", "schedule_type": "STATIC", "schedule_name": "random_14", "is_biased_choice":false,"side_choice": "LEFT", "trial_number":0,"observed_reward":0,"unobserved_reward":0},{"RT":7544,"time": "2018-08-15 05:28:19pm", "schedule_type": "STATIC", "schedule_name": "random_14", "is_biased_choice":true,"side_choice": "RIGHT", "trial_number":1,"observed_reward":0,"unobserved_reward":0},{"RT":2916,"time": "2018-08-15 05:28:23pm", "schedule_type": "STATIC", "schedule_name": "random_14", "is_biased_choice":false,"side_choice": "LEFT", "trial_number":2,"observed_reward":0,"unobserved_reward":1},{"RT":3068,"time": "2018-08-15 05:28:25pm", "schedule_type": "STATIC", "schedule_name": "random_14", "is_biased_choice":true,"side_choice": "RIGHT", "trial_number":3,"observed_reward":1,"unobserved_reward":0},{"RT":4255,"time": "2018-08-15 05:28:30pm", "schedule_type": "STATIC", "schedule_name": "random_14", "is_biased_choice":true,"side_choice": "RIGHT", "trial_number":4,"observed_reward":0,"unobserved_reward":0},{"RT":2577,"time": "2018-08-15 05:28:32pm", "schedule_type": "STATIC", "schedule_name": "random_14", "is_biased_choice":true,"side_choice": "RIGHT", "trial_number":5,"observed_reward":0,"unobserved_reward":0},{"RT":2503,"time": "2018-08-15 05:28:35pm", "schedule_type": "STATIC", "schedule_name": "random_14", "is_biased_choice":true,"side_choice": "RIGHT", "trial_number":6,"observed_reward":0,"unobserved_reward":0},{"RT":2656,"time": "2018-08-15 05:28:37pm", "schedule_type": "STATIC", "schedule_name": "random_14", "is_biased_choice":false,"side_choice": "LEFT", "trial_number":7,"observed_reward":0,"unobserved_reward":0},{"RT":2696,"time": "2018-08-15 05:28:40pm", "schedule_type": "STATIC", "schedule_name": "random_14", "is_biased_choice":true,"side_choice": "RIGHT", "trial_number":8,"observed_reward":0,"unobserved_reward":0},{"RT":2864,"time": "2018-08-15 05:28:43pm", "schedule_type": "STATIC", "schedule_name": "random_14", "is_biased_choice":false,"side_choice": "LEFT", "trial_number":9,"observed_reward":1,"unobserved_reward":0},{"RT":2826,"time": "2018-08-15 05:28:46pm", "schedule_type": "STATIC", "schedule_name": "random_14", "is_biased_choice":true,"side_choice": "RIGHT", "trial_number":10,"observed_reward":0,"unobserved_reward":0},{"RT":2624,"time": "2018-08-15 05:28:48pm", "schedule_type": "STATIC", "schedule_name": "random_14", "is_biased_choice":false,"side_choice": "LEFT", "trial_number":11,"observed_reward":1,"unobserved_reward":1},{"RT":4310,"time": "2018-08-15 05:28:53pm", "schedule_type": "STATIC", "schedule_name": "random_14", "is_biased_choice":false,"side_choice": "LEFT", "trial_number":12,"observed_reward":1,"unobserved_reward":0},{"RT":3353,"time": "2018-08-15 05:28:56pm", "schedule_type": "STATIC", "schedule_name": "random_14", "is_biased_choice":false,"side_choice": "LEFT", "trial_number":13,"observed_reward":0,"unobserved_reward":0},{"RT":3044,"time": "2018-08-15 05:28:59pm", "schedule_type": "STATIC", "schedule_name": "random_14", "is_biased_choice":true,"side_choice": "RIGHT", "trial_number":14,"observed_reward":0,"unobserved_reward":0},{"RT":2855,"time": "2018-08-15 05:29:02pm", "schedule_type": "STATIC", "schedule_name": "random_14", "is_biased_choice":true,"side_choice": "RIGHT", "trial_number":15,"observed_reward":0,"unobserved_reward":0},{"RT":2818,"time": "2018-08-15 05:29:05pm", "schedule_type": "STATIC", "schedule_name": "random_14", "is_biased_choice":false,"side_choice": "LEFT", "trial_number":16,"observed_reward":0,"unobserved_reward":0},{"RT":3017,"time": "2018-08-15 05:29:08pm", "schedule_type": "STATIC", "schedule_name": "random_14", "is_biased_choice":false,"side_choice": "LEFT", "trial_number":17,"observed_reward":0,"unobserved_reward":0},{"RT":5883,"time": "2018-08-15 05:29:14pm", "schedule_type": "STATIC", "schedule_name": "random_14", "is_biased_choice":true,"side_choice": "RIGHT", "trial_number":18,"observed_reward":0,"unobserved_reward":0},{"RT":3049,"time": "2018-08-15 05:29:17pm", "schedule_type": "STATIC", "schedule_name": "random_14", "is_biased_choice":false,"side_choice": "LEFT", "trial_number":19,"observed_reward":0,"unobserved_reward":0},{"RT":3125,"time": "2018-08-15 05:29:20pm", "schedule_type": "STATIC", "schedule_name": "random_14", "is_biased_choice":true,"side_choice": "RIGHT", "trial_number":20,"observed_reward":0,"unobserved_reward":0},{"RT":2607,"time": "2018-08-15 05:29:22pm", "schedule_type": "STATIC", "schedule_name": "random_14", "is_biased_choice":true,"side_choice": "RIGHT", "trial_number":21,"observed_reward":0,"unobserved_reward":1},{"RT":2719,"time": "2018-08-15 05:29:26pm", "schedule_type": "STATIC", "schedule_name": "random_14", "is_biased_choice":false,"side_choice": "LEFT", "trial_number":22,"observed_reward":0,"unobserved_reward":0},{"RT":4115,"time": "2018-08-15 05:29:29pm", "schedule_type": "STATIC", "schedule_name": "random_14", "is_biased_choice":false,"side_choice": "LEFT", "trial_number":23,"observed_reward":1,"unobserved_reward":0},{"RT":2934,"time": "2018-08-15 05:29:32pm", "schedule_type": "STATIC", "schedule_name": "random_14", "is_biased_choice":false,"side_choice": "LEFT", "trial_number":24,"observed_reward":1,"unobserved_reward":0},{"RT":3600,"time": "2018-08-15 05:29:36pm", "schedule_type": "STATIC", "schedule_name": "random_14", "is_biased_choice":true,"side_choice": "RIGHT", "trial_number":25,"observed_reward":0,"unobserved_reward":0},{"RT":3384,"time": "2018-08-15 05:29:39pm", "schedule_type": "STATIC", "schedule_name": "random_14", "is_biased_choice":false,"side_choice": "LEFT", "trial_number":26,"observed_reward":1,"unobserved_reward":0},{"RT":2971,"time": "2018-08-15 05:29:42pm", "schedule_type": "STATIC", "schedule_name": "random_14", "is_biased_choice":false,"side_choice": "LEFT", "trial_number":27,"observed_reward":1,"unobserved_reward":1},{"RT":2493,"time": "2018-08-15 05:29:45pm", "schedule_type": "STATIC", "schedule_name": "random_14", "is_biased_choice":false,"side_choice": "LEFT", "trial_number":28,"observed_reward":0,"unobserved_reward":0},{"RT":2334,"time": "2018-08-15 05:29:47pm", "schedule_type": "STATIC", "schedule_name": "random_14", "is_biased_choice":false,"side_choice": "LEFT", "trial_number":29,"observed_reward":0,"unobserved_reward":1},{"RT":2717,"time": "2018-08-15 05:29:50pm", "schedule_type": "STATIC", "schedule_name": "random_14", "is_biased_choice":true,"side_choice": "RIGHT", "trial_number":30,"observed_reward":0,"unobserved_reward":0},{"RT":2250,"time": "2018-08-15 05:29:52pm", "schedule_type": "STATIC", "schedule_name": "random_14", "is_biased_choice":false,"side_choice": "LEFT", "trial_number":31,"observed_reward":0,"unobserved_reward":0},{"RT":2334,"time": "2018-08-15 05:29:55pm", "schedule_type": "STATIC", "schedule_name": "random_14", "is_biased_choice":true,"side_choice": "RIGHT", "trial_number":32,"observed_reward":0,"unobserved_reward":0},{"RT":2782,"time": "2018-08-15 05:29:57pm", "schedule_type": "STATIC", "schedule_name": "random_14", "is_biased_choice":false,"side_choice": "LEFT", "trial_number":33,"observed_reward":0,"unobserved_reward":1},{"RT":2316,"time": "2018-08-15 05:30:00pm", "schedule_type": "STATIC", "schedule_name": "random_14", "is_biased_choice":false,"side_choice": "LEFT", "trial_number":34,"observed_reward":0,"unobserved_reward":1},{"RT":2518,"time": "2018-08-15 05:30:02pm", "schedule_type": "STATIC", "schedule_name": "random_14", "is_biased_choice":false,"side_choice": "LEFT", "trial_number":35,"observed_reward":0,"unobserved_reward":0},{"RT":2288,"time": "2018-08-15 05:30:04pm", "schedule_type": "STATIC", "schedule_name": "random_14", "is_biased_choice":false,"side_choice": "LEFT", "trial_number":36,"observed_reward":0,"unobserved_reward":0},{"RT":2495,"time": "2018-08-15 05:30:07pm", "schedule_type": "STATIC", "schedule_name": "random_14", "is_biased_choice":false,"side_choice": "LEFT", "trial_number":37,"observed_reward":1,"unobserved_reward":0},{"RT":2482,"time": "2018-08-15 05:30:09pm", "schedule_type": "STATIC", "schedule_name": "random_14", "is_biased_choice":false,"side_choice": "LEFT", "trial_number":38,"observed_reward":1,"unobserved_reward":0},{"RT":2433,"time": "2018-08-15 05:30:12pm", "schedule_type": "STATIC", "schedule_name": "random_14", "is_biased_choice":false,"side_choice": "LEFT", "trial_number":39,"observed_reward":0,"unobserved_reward":1},{"RT":2660,"time": "2018-08-15 05:30:15pm", "schedule_type": "STATIC", "schedule_name": "random_14", "is_biased_choice":true,"side_choice": "RIGHT", "trial_number":40,"observed_reward":0,"unobserved_reward":0},{"RT":2390,"time": "2018-08-15 05:30:17pm", "schedule_type": "STATIC", "schedule_name": "random_14", "is_biased_choice":true,"side_choice": "RIGHT", "trial_number":41,"observed_reward":1,"unobserved_reward":0},{"RT":2501,"time": "2018-08-15 05:30:19pm", "schedule_type": "STATIC", "schedule_name": "random_14", "is_biased_choice":true,"side_choice": "RIGHT", "trial_number":42,"observed_reward":0,"unobserved_reward":0},{"RT":7150,"time": "2018-08-15 05:30:26pm", "schedule_type": "STATIC", "schedule_name": "random_14", "is_biased_choice":true,"side_choice": "RIGHT", "trial_number":43,"observed_reward":1,"unobserved_reward":0},{"RT":2405,"time": "2018-08-15 05:30:29pm", "schedule_type": "STATIC", "schedule_name": "random_14", "is_biased_choice":true,"side_choice": "RIGHT", "trial_number":44,"observed_reward":0,"unobserved_reward":0},{"RT":2811,"time": "2018-08-15 05:30:31pm", "schedule_type": "STATIC", "schedule_name": "random_14", "is_biased_choice":false,"side_choice": "LEFT", "trial_number":45,"observed_reward":0,"unobserved_reward":0},{"RT":2267,"time": "2018-08-15 05:30:34pm", "schedule_type": "STATIC", "schedule_name": "random_14", "is_biased_choice":false,"side_choice": "LEFT", "trial_number":46,"observed_reward":1,"unobserved_reward":1},{"RT":2433,"time": "2018-08-15 05:30:36pm", "schedule_type": "STATIC", "schedule_name": "random_14", "is_biased_choice":false,"side_choice": "LEFT", "trial_number":47,"observed_reward":0,"unobserved_reward":0},{"RT":2483,"time": "2018-08-15 05:30:39pm", "schedule_type": "STATIC", "schedule_name": "random_14", "is_biased_choice":false,"side_choice": "LEFT", "trial_number":48,"observed_reward":1,"unobserved_reward":0},{"RT":2916,"time": "2018-08-15 05:30:42pm", "schedule_type": "STATIC", "schedule_name": "random_14", "is_biased_choice":false,"side_choice": "LEFT", "trial_number":49,"observed_reward":1,"unobserved_reward":0},{"RT":2549,"time": "2018-08-15 05:30:44pm", "schedule_type": "STATIC", "schedule_name": "random_14", "is_biased_choice":false,"side_choice": "LEFT", "trial_number":50,"observed_reward":0,"unobserved_reward":1},{"RT":2602,"time": "2018-08-15 05:30:47pm", "schedule_type": "STATIC", "schedule_name": "random_14", "is_biased_choice":false,"side_choice": "LEFT", "trial_number":51,"observed_reward":1,"unobserved_reward":1},{"RT":2496,"time": "2018-08-15 05:30:50pm", "schedule_type": "STATIC", "schedule_name": "random_14", "is_biased_choice":false,"side_choice": "LEFT", "trial_number":52,"observed_reward":1,"unobserved_reward":0},{"RT":2272,"time": "2018-08-15 05:30:52pm", "schedule_type": "STATIC", "schedule_name": "random_14", "is_biased_choice":false,"side_choice": "LEFT", "trial_number":53,"observed_reward":0,"unobserved_reward":1},{"RT":2315,"time": "2018-08-15 05:30:54pm", "schedule_type": "STATIC", "schedule_name": "random_14", "is_biased_choice":false,"side_choice": "LEFT", "trial_number":54,"observed_reward":0,"unobserved_reward":0},{"RT":2246,"time": "2018-08-15 05:30:56pm", "schedule_type": "STATIC", "schedule_name": "random_14", "is_biased_choice":false,"side_choice": "LEFT", "trial_number":55,"observed_reward":1,"unobserved_reward":0},{"RT":2362,"time": "2018-08-15 05:30:59pm", "schedule_type": "STATIC", "schedule_name": "random_14", "is_biased_choice":false,"side_choice": "LEFT", "trial_number":56,"observed_reward":0,"unobserved_reward":0},{"RT":9386,"time": "2018-08-15 05:31:08pm", "schedule_type": "STATIC", "schedule_name": "random_14", "is_biased_choice":false,"side_choice": "LEFT", "trial_number":57,"observed_reward":0,"unobserved_reward":1},{"RT":2523,"time": "2018-08-15 05:31:11pm", "schedule_type": "STATIC", "schedule_name": "random_14", "is_biased_choice":false,"side_choice": "LEFT", "trial_number":58,"observed_reward":0,"unobserved_reward":0},{"RT":4563,"time": "2018-08-15 05:31:15pm", "schedule_type": "STATIC", "schedule_name": "random_14", "is_biased_choice":false,"side_choice": "LEFT", "trial_number":59,"observed_reward":1,"unobserved_reward":0},{"RT":2385,"time": "2018-08-15 05:31:18pm", "schedule_type": "STATIC", "schedule_name": "random_14", "is_biased_choice":false,"side_choice": "LEFT", "trial_number":60,"observed_reward":0,"unobserved_reward":0},{"RT":2479,"time": "2018-08-15 05:31:20pm", "schedule_type": "STATIC", "schedule_name": "random_14", "is_biased_choice":false,"side_choice": "LEFT", "trial_number":61,"observed_reward":0,"unobserved_reward":1},{"RT":3137,"time": "2018-08-15 05:31:23pm", "schedule_type": "STATIC", "schedule_name": "random_14", "is_biased_choice":false,"side_choice": "LEFT", "trial_number":62,"observed_reward":0,"unobserved_reward":1},{"RT":2410,"time": "2018-08-15 05:31:25pm", "schedule_type": "STATIC", "schedule_name": "random_14", "is_biased_choice":false,"side_choice": "LEFT", "trial_number":63,"observed_reward":0,"unobserved_reward":0},{"RT":2771,"time": "2018-08-15 05:31:28pm", "schedule_type": "STATIC", "schedule_name": "random_14", "is_biased_choice":false,"side_choice": "LEFT", "trial_number":64,"observed_reward":0,"unobserved_reward":0},{"RT":2418,"time": "2018-08-15 05:31:30pm", "schedule_type": "STATIC", "schedule_name": "random_14", "is_biased_choice":false,"side_choice": "LEFT", "trial_number":65,"observed_reward":0,"unobserved_reward":0},{"RT":2626,"time": "2018-08-15 05:31:33pm", "schedule_type": "STATIC", "schedule_name": "random_14", "is_biased_choice":true,"side_choice": "RIGHT", "trial_number":66,"observed_reward":1,"unobserved_reward":0},{"RT":2287,"time": "2018-08-15 05:31:35pm", "schedule_type": "STATIC", "schedule_name": "random_14", "is_biased_choice":true,"side_choice": "RIGHT", "trial_number":67,"observed_reward":0,"unobserved_reward":0},{"RT":2320,"time": "2018-08-15 05:31:38pm", "schedule_type": "STATIC", "schedule_name": "random_14", "is_biased_choice":true,"side_choice": "RIGHT", "trial_number":68,"observed_reward":0,"unobserved_reward":0},{"RT":2735,"time": "2018-08-15 05:31:40pm", "schedule_type": "STATIC", "schedule_name": "random_14", "is_biased_choice":true,"side_choice": "RIGHT", "trial_number":69,"observed_reward":0,"unobserved_reward":0},{"RT":2482,"time": "2018-08-15 05:31:43pm", "schedule_type": "STATIC", "schedule_name": "random_14", "is_biased_choice":false,"side_choice": "LEFT", "trial_number":70,"observed_reward":0,"unobserved_reward":0},{"RT":2401,"time": "2018-08-15 05:31:45pm", "schedule_type": "STATIC", "schedule_name": "random_14", "is_biased_choice":false,"side_choice": "LEFT", "trial_number":71,"observed_reward":1,"unobserved_reward":0},{"RT":2894,"time": "2018-08-15 05:31:49pm", "schedule_type": "STATIC", "schedule_name": "random_14", "is_biased_choice":false,"side_choice": "LEFT", "trial_number":72,"observed_reward":0,"unobserved_reward":1},{"RT":2328,"time": "2018-08-15 05:31:51pm", "schedule_type": "STATIC", "schedule_name": "random_14", "is_biased_choice":false,"side_choice": "LEFT", "trial_number":73,"observed_reward":0,"unobserved_reward":1},{"RT":2394,"time": "2018-08-15 05:31:53pm", "schedule_type": "STATIC", "schedule_name": "random_14", "is_biased_choice":false,"side_choice": "LEFT", "trial_number":74,"observed_reward":0,"unobserved_reward":0},{"RT":2327,"time": "2018-08-15 05:31:55pm", "schedule_type": "STATIC", "schedule_name": "random_14", "is_biased_choice":false,"side_choice": "LEFT", "trial_number":75,"observed_reward":0,"unobserved_reward":0},{"RT":2488,"time": "2018-08-15 05:31:58pm", "schedule_type": "STATIC", "schedule_name": "random_14", "is_biased_choice":true,"side_choice": "RIGHT", "trial_number":76,"observed_reward":1,"unobserved_reward":0},{"RT":2384,"time": "2018-08-15 05:32:00pm", "schedule_type": "STATIC", "schedule_name": "random_14", "is_biased_choice":true,"side_choice": "RIGHT", "trial_number":77,"observed_reward":0,"unobserved_reward":0},{"RT":2301,"time": "2018-08-15 05:32:03pm", "schedule_type": "STATIC", "schedule_name": "random_14", "is_biased_choice":false,"side_choice": "LEFT", "trial_number":78,"observed_reward":0,"unobserved_reward":0},{"RT":2300,"time": "2018-08-15 05:32:05pm", "schedule_type": "STATIC", "schedule_name": "random_14", "is_biased_choice":false,"side_choice": "LEFT", "trial_number":79,"observed_reward":1,"unobserved_reward":0},{"RT":2333,"time": "2018-08-15 05:32:07pm", "schedule_type": "STATIC", "schedule_name": "random_14", "is_biased_choice":false,"side_choice": "LEFT", "trial_number":80,"observed_reward":1,"unobserved_reward":1},{"RT":2399,"time": "2018-08-15 05:32:09pm", "schedule_type": "STATIC", "schedule_name": "random_14", "is_biased_choice":true,"side_choice": "RIGHT", "trial_number":81,"observed_reward":0,"unobserved_reward":1},{"RT":2382,"time": "2018-08-15 05:32:12pm", "schedule_type": "STATIC", "schedule_name": "random_14", "is_biased_choice":false,"side_choice": "LEFT", "trial_number":82,"observed_reward":1,"unobserved_reward":0},{"RT":2351,"time": "2018-08-15 05:32:14pm", "schedule_type": "STATIC", "schedule_name": "random_14", "is_biased_choice":false,"side_choice": "LEFT", "trial_number":83,"observed_reward":0,"unobserved_reward":0},{"RT":2585,"time": "2018-08-15 05:32:17pm", "schedule_type": "STATIC", "schedule_name": "random_14", "is_biased_choice":false,"side_choice": "LEFT", "trial_number":84,"observed_reward":1,"unobserved_reward":1},{"RT":2915,"time": "2018-08-15 05:32:20pm", "schedule_type": "STATIC", "schedule_name": "random_14", "is_biased_choice":false,"side_choice": "LEFT", "trial_number":85,"observed_reward":0,"unobserved_reward":0},{"RT":2416,"time": "2018-08-15 05:32:22pm", "schedule_type": "STATIC", "schedule_name": "random_14", "is_biased_choice":false,"side_choice": "LEFT", "trial_number":86,"observed_reward":0,"unobserved_reward":0},{"RT":2266,"time": "2018-08-15 05:32:24pm", "schedule_type": "STATIC", "schedule_name": "random_14", "is_biased_choice":false,"side_choice": "LEFT", "trial_number":87,"observed_reward":0,"unobserved_reward":0},{"RT":2171,"time": "2018-08-15 05:32:27pm", "schedule_type": "STATIC", "schedule_name": "random_14", "is_biased_choice":true,"side_choice": "RIGHT", "trial_number":88,"observed_reward":0,"unobserved_reward":0},{"RT":2310,"time": "2018-08-15 05:32:29pm", "schedule_type": "STATIC", "schedule_name": "random_14", "is_biased_choice":false,"side_choice": "LEFT", "trial_number":89,"observed_reward":0,"unobserved_reward":0},{"RT":2237,"time": "2018-08-15 05:32:31pm", "schedule_type": "STATIC", "schedule_name": "random_14", "is_biased_choice":false,"side_choice": "LEFT", "trial_number":90,"observed_reward":0,"unobserved_reward":1},{"RT":2415,"time": "2018-08-15 05:32:34pm", "schedule_type": "STATIC", "schedule_name": "random_14", "is_biased_choice":false,"side_choice": "LEFT", "trial_number":91,"observed_reward":0,"unobserved_reward":1},{"RT":2300,"time": "2018-08-15 05:32:36pm", "schedule_type": "STATIC", "schedule_name": "random_14", "is_biased_choice":false,"side_choice": "LEFT", "trial_number":92,"observed_reward":0,"unobserved_reward":0},{"RT":2250,"time": "2018-08-15 05:32:38pm", "schedule_type": "STATIC", "schedule_name": "random_14", "is_biased_choice":true,"side_choice": "RIGHT", "trial_number":93,"observed_reward":0,"unobserved_reward":0},{"RT":2332,"time": "2018-08-15 05:32:41pm", "schedule_type": "STATIC", "schedule_name": "random_14", "is_biased_choice":true,"side_choice": "RIGHT", "trial_number":94,"observed_reward":0,"unobserved_reward":1},{"RT":2436,"time": "2018-08-15 05:32:43pm", "schedule_type": "STATIC", "schedule_name": "random_14", "is_biased_choice":true,"side_choice": "RIGHT", "trial_number":95,"observed_reward":0,"unobserved_reward":0},{"RT":2279,"time": "2018-08-15 05:32:45pm", "schedule_type": "STATIC", "schedule_name": "random_14", "is_biased_choice":true,"side_choice": "RIGHT", "trial_number":96,"observed_reward":0,"unobserved_reward":1},{"RT":2368,"time": "2018-08-15 05:32:48pm", "schedule_type": "STATIC", "schedule_name": "random_14", "is_biased_choice":false,"side_choice": "LEFT", "trial_number":97,"observed_reward":0,"unobserved_reward":0},{"RT":2285,"time": "2018-08-15 05:32:50pm", "schedule_type": "STATIC", "schedule_name": "random_14", "is_biased_choice":false,"side_choice": "LEFT", "trial_number":98,"observed_reward":0,"unobserved_reward":0},{"RT":2362,"time": "2018-08-15 05:32:52pm", "schedule_type": "STATIC", "schedule_name": "random_14", "is_biased_choice":true,"side_choice": "RIGHT", "trial_number":99,"observed_reward":0,"unobserved_reward":0},