trial_number, time, schedule_type, schedule_name, is_biased_choice, side_choice, RT, observed_reward, unobserved_reward, biased_reward, unbiased_reward
0,2018-07-29 05:49:59pm, STATIC, random_19, false, LEFT, 3047, 0, 0, 0, 0
1,2018-07-29 05:50:02pm, STATIC, random_19, true, RIGHT, 3272, 1, 0, 1, 0
2,2018-07-29 05:50:05pm, STATIC, random_19, true, RIGHT, 2587, 0, 0, 0, 0
3,2018-07-29 05:50:07pm, STATIC, random_19, true, RIGHT, 2408, 0, 0, 0, 0
4,2018-07-29 05:50:09pm, STATIC, random_19, false, LEFT, 2374, 0, 0, 0, 0
5,2018-07-29 05:50:12pm, STATIC, random_19, false, LEFT, 2797, 1, 1, 1, 1
6,2018-07-29 05:50:15pm, STATIC, random_19, true, RIGHT, 2485, 0, 0, 0, 0
7,2018-07-29 05:50:17pm, STATIC, random_19, true, RIGHT, 2267, 0, 0, 0, 0
8,2018-07-29 05:50:19pm, STATIC, random_19, false, LEFT, 2293, 0, 1, 1, 0
9,2018-07-29 05:50:22pm, STATIC, random_19, false, LEFT, 2327, 0, 0, 0, 0
10,2018-07-29 05:50:24pm, STATIC, random_19, false, LEFT, 2328, 0, 0, 0, 0
11,2018-07-29 05:50:27pm, STATIC, random_19, false, LEFT, 3238, 0, 0, 0, 0
12,2018-07-29 05:50:29pm, STATIC, random_19, true, RIGHT, 2207, 0, 0, 0, 0
13,2018-07-29 05:50:33pm, STATIC, random_19, true, RIGHT, 3239, 0, 0, 0, 0
14,2018-07-29 05:50:35pm, STATIC, random_19, true, RIGHT, 2771, 0, 0, 0, 0
15,2018-07-29 05:50:38pm, STATIC, random_19, false, LEFT, 2180, 1, 1, 1, 1
16,2018-07-29 05:50:40pm, STATIC, random_19, false, LEFT, 2221, 1, 1, 1, 1
17,2018-07-29 05:50:42pm, STATIC, random_19, false, LEFT, 2286, 1, 0, 0, 1
18,2018-07-29 05:50:44pm, STATIC, random_19, false, LEFT, 2266, 0, 0, 0, 0
19,2018-07-29 05:50:47pm, STATIC, random_19, false, LEFT, 2234, 0, 0, 0, 0
20,2018-07-29 05:50:49pm, STATIC, random_19, false, LEFT, 2268, 0, 0, 0, 0
21,2018-07-29 05:50:51pm, STATIC, random_19, false, LEFT, 2267, 1, 0, 0, 1
22,2018-07-29 05:50:53pm, STATIC, random_19, false, LEFT, 2265, 0, 0, 0, 0
23,2018-07-29 05:50:56pm, STATIC, random_19, false, LEFT, 2275, 1, 0, 0, 1
24,2018-07-29 05:50:58pm, STATIC, random_19, false, LEFT, 2626, 1, 0, 0, 1
25,2018-07-29 05:51:01pm, STATIC, random_19, false, LEFT, 2480, 0, 0, 0, 0
26,2018-07-29 05:51:03pm, STATIC, random_19, true, RIGHT, 2243, 0, 0, 0, 0
27,2018-07-29 05:51:05pm, STATIC, random_19, false, LEFT, 2286, 0, 1, 1, 0
28,2018-07-29 05:51:08pm, STATIC, random_19, false, LEFT, 2606, 0, 1, 1, 0
29,2018-07-29 05:51:11pm, STATIC, random_19, true, RIGHT, 3557, 1, 0, 1, 0
30,2018-07-29 05:51:14pm, STATIC, random_19, true, RIGHT, 2211, 0, 0, 0, 0
31,2018-07-29 05:51:16pm, STATIC, random_19, true, RIGHT, 2213, 1, 1, 1, 1
32,2018-07-29 05:51:18pm, STATIC, random_19, true, RIGHT, 2251, 0, 0, 0, 0
33,2018-07-29 05:51:21pm, STATIC, random_19, true, RIGHT, 2581, 0, 0, 0, 0
34,2018-07-29 05:51:23pm, STATIC, random_19, false, LEFT, 2392, 0, 0, 0, 0
35,2018-07-29 05:51:25pm, STATIC, random_19, false, LEFT, 2387, 0, 0, 0, 0
36,2018-07-29 05:51:28pm, STATIC, random_19, true, RIGHT, 2407, 1, 1, 1, 1
37,2018-07-29 05:51:30pm, STATIC, random_19, false, LEFT, 2335, 0, 0, 0, 0
38,2018-07-29 05:51:32pm, STATIC, random_19, true, RIGHT, 2260, 0, 1, 0, 1
39,2018-07-29 05:51:35pm, STATIC, random_19, true, RIGHT, 2254, 0, 0, 0, 0
40,2018-07-29 05:51:37pm, STATIC, random_19, false, LEFT, 2208, 0, 1, 1, 0
41,2018-07-29 05:51:40pm, STATIC, random_19, true, RIGHT, 3431, 0, 0, 0, 0
42,2018-07-29 05:51:43pm, STATIC, random_19, false, LEFT, 2181, 0, 0, 0, 0
43,2018-07-29 05:51:45pm, STATIC, random_19, false, LEFT, 2110, 0, 0, 0, 0
44,2018-07-29 05:51:47pm, STATIC, random_19, false, LEFT, 2124, 1, 0, 0, 1
45,2018-07-29 05:51:49pm, STATIC, random_19, false, LEFT, 2329, 0, 0, 0, 0
46,2018-07-29 05:51:51pm, STATIC, random_19, false, LEFT, 2160, 0, 0, 0, 0
47,2018-07-29 05:51:54pm, STATIC, random_19, true, RIGHT, 2557, 0, 1, 0, 1
48,2018-07-29 05:51:56pm, STATIC, random_19, true, RIGHT, 2202, 1, 0, 1, 0
49,2018-07-29 05:51:58pm, STATIC, random_19, false, LEFT, 2404, 1, 0, 0, 1
50,2018-07-29 05:52:01pm, STATIC, random_19, false, LEFT, 2402, 1, 0, 0, 1
51,2018-07-29 05:52:03pm, STATIC, random_19, false, LEFT, 2378, 0, 1, 1, 0
52,2018-07-29 05:52:05pm, STATIC, random_19, false, LEFT, 2251, 0, 1, 1, 0
53,2018-07-29 05:52:08pm, STATIC, random_19, true, RIGHT, 2190, 1, 0, 1, 0
54,2018-07-29 05:52:10pm, STATIC, random_19, true, RIGHT, 2353, 0, 1, 0, 1
55,2018-07-29 05:52:12pm, STATIC, random_19, false, LEFT, 2239, 0, 1, 1, 0
56,2018-07-29 05:52:15pm, STATIC, random_19, false, LEFT, 2362, 0, 0, 0, 0
57,2018-07-29 05:52:17pm, STATIC, random_19, false, LEFT, 2258, 0, 0, 0, 0
58,2018-07-29 05:52:19pm, STATIC, random_19, true, RIGHT, 2507, 1, 0, 1, 0
59,2018-07-29 05:52:21pm, STATIC, random_19, true, RIGHT, 2126, 0, 0, 0, 0
60,2018-07-29 05:52:24pm, STATIC, random_19, true, RIGHT, 2110, 0, 0, 0, 0
61,2018-07-29 05:52:26pm, STATIC, random_19, false, LEFT, 2259, 0, 1, 1, 0
62,2018-07-29 05:52:28pm, STATIC, random_19, true, RIGHT, 2655, 0, 0, 0, 0
63,2018-07-29 05:52:31pm, STATIC, random_19, true, RIGHT, 2101, 0, 0, 0, 0
64,2018-07-29 05:52:33pm, STATIC, random_19, false, LEFT, 2118, 0, 0, 0, 0
65,2018-07-29 05:52:35pm, STATIC, random_19, false, LEFT, 2702, 0, 0, 0, 0
66,2018-07-29 05:52:38pm, STATIC, random_19, false, LEFT, 2217, 1, 0, 0, 1
67,2018-07-29 05:52:40pm, STATIC, random_19, false, LEFT, 2274, 0, 1, 1, 0
68,2018-07-29 05:52:42pm, STATIC, random_19, false, LEFT, 2197, 0, 0, 0, 0
69,2018-07-29 05:52:44pm, STATIC, random_19, true, RIGHT, 2131, 1, 1, 1, 1
70,2018-07-29 05:52:47pm, STATIC, random_19, true, RIGHT, 2336, 1, 0, 1, 0
71,2018-07-29 05:52:49pm, STATIC, random_19, true, RIGHT, 2202, 0, 0, 0, 0
72,2018-07-29 05:52:51pm, STATIC, random_19, false, LEFT, 2420, 0, 0, 0, 0
73,2018-07-29 05:52:53pm, STATIC, random_19, false, LEFT, 2255, 0, 0, 0, 0
74,2018-07-29 05:52:56pm, STATIC, random_19, false, LEFT, 2682, 1, 0, 0, 1
75,2018-07-29 05:52:58pm, STATIC, random_19, false, LEFT, 2305, 0, 0, 0, 0
76,2018-07-29 05:53:01pm, STATIC, random_19, false, LEFT, 2193, 0, 1, 1, 0
77,2018-07-29 05:53:03pm, STATIC, random_19, true, RIGHT, 2278, 0, 1, 0, 1
78,2018-07-29 05:53:05pm, STATIC, random_19, true, RIGHT, 2484, 0, 0, 0, 0
79,2018-07-29 05:53:09pm, STATIC, random_19, false, LEFT, 3193, 0, 0, 0, 0
80,2018-07-29 05:53:11pm, STATIC, random_19, false, LEFT, 2218, 0, 1, 1, 0
81,2018-07-29 05:53:13pm, STATIC, random_19, false, LEFT, 2121, 0, 0, 0, 0
82,2018-07-29 05:53:15pm, STATIC, random_19, true, RIGHT, 2439, 0, 0, 0, 0
83,2018-07-29 05:53:18pm, STATIC, random_19, true, RIGHT, 2161, 0, 0, 0, 0
84,2018-07-29 05:53:20pm, STATIC, random_19, true, RIGHT, 2107, 0, 0, 0, 0
85,2018-07-29 05:53:22pm, STATIC, random_19, false, LEFT, 2477, 0, 0, 0, 0
86,2018-07-29 05:53:24pm, STATIC, random_19, true, RIGHT, 2058, 0, 0, 0, 0
87,2018-07-29 05:53:26pm, STATIC, random_19, true, RIGHT, 2125, 0, 0, 0, 0
88,2018-07-29 05:53:29pm, STATIC, random_19, false, LEFT, 2273, 1, 0, 0, 1
89,2018-07-29 05:53:31pm, STATIC, random_19, false, LEFT, 2148, 1, 0, 0, 1
90,2018-07-29 05:53:33pm, STATIC, random_19, false, LEFT, 2222, 1, 0, 0, 1
91,2018-07-29 05:53:35pm, STATIC, random_19, false, LEFT, 2376, 0, 0, 0, 0
92,2018-07-29 05:53:38pm, STATIC, random_19, false, LEFT, 2324, 1, 0, 0, 1
93,2018-07-29 05:53:40pm, STATIC, random_19, false, LEFT, 2113, 0, 0, 0, 0
94,2018-07-29 05:53:42pm, STATIC, random_19, false, LEFT, 2148, 1, 1, 1, 1
95,2018-07-29 05:53:44pm, STATIC, random_19, false, LEFT, 2178, 0, 0, 0, 0
96,2018-07-29 05:53:47pm, STATIC, random_19, false, LEFT, 2582, 0, 0, 0, 0
97,2018-07-29 05:53:49pm, STATIC, random_19, false, LEFT, 2167, 1, 0, 0, 1
98,2018-07-29 05:53:51pm, STATIC, random_19, false, LEFT, 2188, 0, 0, 0, 0
99,2018-07-29 05:53:53pm, STATIC, random_19, false, LEFT, 2222, 0, 1, 1, 0
