[{"RT":7204,"time": "2018-08-15 01:42:42pm", "schedule_type": "STATIC", "schedule_name": "random_19", "is_biased_choice":false,"side_choice": "LEFT", "trial_number":0,"observed_reward":0,"unobserved_reward":0},{"RT":4637,"time": "2018-08-15 01:42:47pm", "schedule_type": "STATIC", "schedule_name": "random_19", "is_biased_choice":true,"side_choice": "RIGHT", "trial_number":1,"observed_reward":1,"unobserved_reward":0},{"RT":5126,"time": "2018-08-15 01:42:52pm", "schedule_type": "STATIC", "schedule_name": "random_19", "is_biased_choice":true,"side_choice": "RIGHT", "trial_number":2,"observed_reward":0,"unobserved_reward":0},{"RT":4217,"time": "2018-08-15 01:42:56pm", "schedule_type": "STATIC", "schedule_name": "random_19", "is_biased_choice":false,"side_choice": "LEFT", "trial_number":3,"observed_reward":0,"unobserved_reward":0},{"RT":6903,"time": "2018-08-15 01:43:03pm", "schedule_type": "STATIC", "schedule_name": "random_19", "is_biased_choice":false,"side_choice": "LEFT", "trial_number":4,"observed_reward":0,"unobserved_reward":0},{"RT":3806,"time": "2018-08-15 01:43:07pm", "schedule_type": "STATIC", "schedule_name": "random_19", "is_biased_choice":true,"side_choice": "RIGHT", "trial_number":5,"observed_reward":1,"unobserved_reward":1},{"RT":4234,"time": "2018-08-15 01:43:11pm", "schedule_type": "STATIC", "schedule_name": "random_19", "is_biased_choice":false,"side_choice": "LEFT", "trial_number":6,"observed_reward":0,"unobserved_reward":0},{"RT":3551,"time": "2018-08-15 01:43:14pm", "schedule_type": "STATIC", "schedule_name": "random_19", "is_biased_choice":true,"side_choice": "RIGHT", "trial_number":7,"observed_reward":0,"unobserved_reward":0},{"RT":3201,"time": "2018-08-15 01:43:18pm", "schedule_type": "STATIC", "schedule_name": "random_19", "is_biased_choice":false,"side_choice": "LEFT", "trial_number":8,"observed_reward":0,"unobserved_reward":1},{"RT":3177,"time": "2018-08-15 01:43:21pm", "schedule_type": "STATIC", "schedule_name": "random_19", "is_biased_choice":true,"side_choice": "RIGHT", "trial_number":9,"observed_reward":0,"unobserved_reward":0},{"RT":3384,"time": "2018-08-15 01:43:24pm", "schedule_type": "STATIC", "schedule_name": "random_19", "is_biased_choice":false,"side_choice": "LEFT", "trial_number":10,"observed_reward":0,"unobserved_reward":0},{"RT":3248,"time": "2018-08-15 01:43:28pm", "schedule_type": "STATIC", "schedule_name": "random_19", "is_biased_choice":true,"side_choice": "RIGHT", "trial_number":11,"observed_reward":0,"unobserved_reward":0},{"RT":4296,"time": "2018-08-15 01:43:32pm", "schedule_type": "STATIC", "schedule_name": "random_19", "is_biased_choice":false,"side_choice": "LEFT", "trial_number":12,"observed_reward":0,"unobserved_reward":0},{"RT":4575,"time": "2018-08-15 01:43:37pm", "schedule_type": "STATIC", "schedule_name": "random_19", "is_biased_choice":true,"side_choice": "RIGHT", "trial_number":13,"observed_reward":0,"unobserved_reward":0},{"RT":3600,"time": "2018-08-15 01:43:40pm", "schedule_type": "STATIC", "schedule_name": "random_19", "is_biased_choice":false,"side_choice": "LEFT", "trial_number":14,"observed_reward":0,"unobserved_reward":0},{"RT":15471,"time": "2018-08-15 01:43:55pm", "schedule_type": "STATIC", "schedule_name": "random_19", "is_biased_choice":true,"side_choice": "RIGHT", "trial_number":15,"observed_reward":1,"unobserved_reward":1},{"RT":8760,"time": "2018-08-15 01:44:04pm", "schedule_type": "STATIC", "schedule_name": "random_19", "is_biased_choice":true,"side_choice": "RIGHT", "trial_number":16,"observed_reward":1,"unobserved_reward":1},{"RT":6223,"time": "2018-08-15 01:44:11pm", "schedule_type": "STATIC", "schedule_name": "random_19", "is_biased_choice":true,"side_choice": "RIGHT", "trial_number":17,"observed_reward":0,"unobserved_reward":1},{"RT":4777,"time": "2018-08-15 01:44:15pm", "schedule_type": "STATIC", "schedule_name": "random_19", "is_biased_choice":true,"side_choice": "RIGHT", "trial_number":18,"observed_reward":0,"unobserved_reward":0},{"RT":3192,"time": "2018-08-15 01:44:18pm", "schedule_type": "STATIC", "schedule_name": "random_19", "is_biased_choice":false,"side_choice": "LEFT", "trial_number":19,"observed_reward":0,"unobserved_reward":0},{"RT":3176,"time": "2018-08-15 01:44:23pm", "schedule_type": "STATIC", "schedule_name": "random_19", "is_biased_choice":true,"side_choice": "RIGHT", "trial_number":20,"observed_reward":0,"unobserved_reward":0},{"RT":5362,"time": "2018-08-15 01:44:27pm", "schedule_type": "STATIC", "schedule_name": "random_19", "is_biased_choice":true,"side_choice": "RIGHT", "trial_number":21,"observed_reward":0,"unobserved_reward":1},{"RT":5087,"time": "2018-08-15 01:44:32pm", "schedule_type": "STATIC", "schedule_name": "random_19", "is_biased_choice":false,"side_choice": "LEFT", "trial_number":22,"observed_reward":0,"unobserved_reward":0},{"RT":3112,"time": "2018-08-15 01:44:35pm", "schedule_type": "STATIC", "schedule_name": "random_19", "is_biased_choice":true,"side_choice": "RIGHT", "trial_number":23,"observed_reward":0,"unobserved_reward":1},{"RT":3384,"time": "2018-08-15 01:44:38pm", "schedule_type": "STATIC", "schedule_name": "random_19", "is_biased_choice":false,"side_choice": "LEFT", "trial_number":24,"observed_reward":1,"unobserved_reward":0},{"RT":10936,"time": "2018-08-15 01:44:49pm", "schedule_type": "STATIC", "schedule_name": "random_19", "is_biased_choice":false,"side_choice": "LEFT", "trial_number":25,"observed_reward":0,"unobserved_reward":0},{"RT":3319,"time": "2018-08-15 01:44:53pm", "schedule_type": "STATIC", "schedule_name": "random_19", "is_biased_choice":true,"side_choice": "RIGHT", "trial_number":26,"observed_reward":0,"unobserved_reward":0},{"RT":20295,"time": "2018-08-15 01:45:13pm", "schedule_type": "STATIC", "schedule_name": "random_19", "is_biased_choice":true,"side_choice": "RIGHT", "trial_number":27,"observed_reward":1,"unobserved_reward":0},{"RT":11633,"time": "2018-08-15 01:45:25pm", "schedule_type": "STATIC", "schedule_name": "random_19", "is_biased_choice":true,"side_choice": "RIGHT", "trial_number":28,"observed_reward":1,"unobserved_reward":0},{"RT":3865,"time": "2018-08-15 01:45:28pm", "schedule_type": "STATIC", "schedule_name": "random_19", "is_biased_choice":true,"side_choice": "RIGHT", "trial_number":29,"observed_reward":1,"unobserved_reward":0},{"RT":3968,"time": "2018-08-15 01:45:33pm", "schedule_type": "STATIC", "schedule_name": "random_19", "is_biased_choice":false,"side_choice": "LEFT", "trial_number":30,"observed_reward":0,"unobserved_reward":0},{"RT":3128,"time": "2018-08-15 01:45:35pm", "schedule_type": "STATIC", "schedule_name": "random_19", "is_biased_choice":true,"side_choice": "RIGHT", "trial_number":31,"observed_reward":1,"unobserved_reward":1},{"RT":4608,"time": "2018-08-15 01:45:40pm", "schedule_type": "STATIC", "schedule_name": "random_19", "is_biased_choice":true,"side_choice": "RIGHT", "trial_number":32,"observed_reward":0,"unobserved_reward":0},{"RT":3879,"time": "2018-08-15 01:45:44pm", "schedule_type": "STATIC", "schedule_name": "random_19", "is_biased_choice":true,"side_choice": "RIGHT", "trial_number":33,"observed_reward":0,"unobserved_reward":0},{"RT":4400,"time": "2018-08-15 01:45:48pm", "schedule_type": "STATIC", "schedule_name": "random_19", "is_biased_choice":true,"side_choice": "RIGHT", "trial_number":34,"observed_reward":0,"unobserved_reward":0},{"RT":3216,"time": "2018-08-15 01:45:51pm", "schedule_type": "STATIC", "schedule_name": "random_19", "is_biased_choice":false,"side_choice": "LEFT", "trial_number":35,"observed_reward":0,"unobserved_reward":0},{"RT":3384,"time": "2018-08-15 01:45:55pm", "schedule_type": "STATIC", "schedule_name": "random_19", "is_biased_choice":true,"side_choice": "RIGHT", "trial_number":36,"observed_reward":1,"unobserved_reward":1},{"RT":4640,"time": "2018-08-15 01:46:00pm", "schedule_type": "STATIC", "schedule_name": "random_19", "is_biased_choice":true,"side_choice": "RIGHT", "trial_number":37,"observed_reward":0,"unobserved_reward":0},{"RT":3160,"time": "2018-08-15 01:46:03pm", "schedule_type": "STATIC", "schedule_name": "random_19", "is_biased_choice":false,"side_choice": "LEFT", "trial_number":38,"observed_reward":1,"unobserved_reward":0},{"RT":3304,"time": "2018-08-15 01:46:06pm", "schedule_type": "STATIC", "schedule_name": "random_19", "is_biased_choice":true,"side_choice": "RIGHT", "trial_number":39,"observed_reward":0,"unobserved_reward":0},{"RT":3632,"time": "2018-08-15 01:46:10pm", "schedule_type": "STATIC", "schedule_name": "random_19", "is_biased_choice":true,"side_choice": "RIGHT", "trial_number":40,"observed_reward":1,"unobserved_reward":0},{"RT":3559,"time": "2018-08-15 01:46:13pm", "schedule_type": "STATIC", "schedule_name": "random_19", "is_biased_choice":true,"side_choice": "RIGHT", "trial_number":41,"observed_reward":0,"unobserved_reward":0},{"RT":2880,"time": "2018-08-15 01:46:16pm", "schedule_type": "STATIC", "schedule_name": "random_19", "is_biased_choice":false,"side_choice": "LEFT", "trial_number":42,"observed_reward":0,"unobserved_reward":0},{"RT":3152,"time": "2018-08-15 01:46:19pm", "schedule_type": "STATIC", "schedule_name": "random_19", "is_biased_choice":true,"side_choice": "RIGHT", "trial_number":43,"observed_reward":0,"unobserved_reward":0},{"RT":3264,"time": "2018-08-15 01:46:22pm", "schedule_type": "STATIC", "schedule_name": "random_19", "is_biased_choice":false,"side_choice": "LEFT", "trial_number":44,"observed_reward":1,"unobserved_reward":0},{"RT":3458,"time": "2018-08-15 01:46:27pm", "schedule_type": "STATIC", "schedule_name": "random_19", "is_biased_choice":true,"side_choice": "RIGHT", "trial_number":45,"observed_reward":0,"unobserved_reward":0},{"RT":4640,"time": "2018-08-15 01:46:31pm", "schedule_type": "STATIC", "schedule_name": "random_19", "is_biased_choice":true,"side_choice": "RIGHT", "trial_number":46,"observed_reward":0,"unobserved_reward":0},{"RT":18943,"time": "2018-08-15 01:46:50pm", "schedule_type": "STATIC", "schedule_name": "random_19", "is_biased_choice":true,"side_choice": "RIGHT", "trial_number":47,"observed_reward":0,"unobserved_reward":1},{"RT":3008,"time": "2018-08-15 01:46:53pm", "schedule_type": "STATIC", "schedule_name": "random_19", "is_biased_choice":false,"side_choice": "LEFT", "trial_number":48,"observed_reward":0,"unobserved_reward":1},{"RT":3664,"time": "2018-08-15 01:46:56pm", "schedule_type": "STATIC", "schedule_name": "random_19", "is_biased_choice":true,"side_choice": "RIGHT", "trial_number":49,"observed_reward":0,"unobserved_reward":1},{"RT":3181,"time": "2018-08-15 01:46:59pm", "schedule_type": "STATIC", "schedule_name": "random_19", "is_biased_choice":false,"side_choice": "LEFT", "trial_number":50,"observed_reward":1,"unobserved_reward":0},{"RT":3923,"time": "2018-08-15 01:47:03pm", "schedule_type": "STATIC", "schedule_name": "random_19", "is_biased_choice":true,"side_choice": "RIGHT", "trial_number":51,"observed_reward":1,"unobserved_reward":0},{"RT":3832,"time": "2018-08-15 01:47:07pm", "schedule_type": "STATIC", "schedule_name": "random_19", "is_biased_choice":true,"side_choice": "RIGHT", "trial_number":52,"observed_reward":1,"unobserved_reward":0},{"RT":3567,"time": "2018-08-15 01:47:11pm", "schedule_type": "STATIC", "schedule_name": "random_19", "is_biased_choice":true,"side_choice": "RIGHT", "trial_number":53,"observed_reward":1,"unobserved_reward":0},{"RT":5288,"time": "2018-08-15 01:47:16pm", "schedule_type": "STATIC", "schedule_name": "random_19", "is_biased_choice":false,"side_choice": "LEFT", "trial_number":54,"observed_reward":1,"unobserved_reward":0},{"RT":4479,"time": "2018-08-15 01:47:20pm", "schedule_type": "STATIC", "schedule_name": "random_19", "is_biased_choice":false,"side_choice": "LEFT", "trial_number":55,"observed_reward":0,"unobserved_reward":1},{"RT":2859,"time": "2018-08-15 01:47:23pm", "schedule_type": "STATIC", "schedule_name": "random_19", "is_biased_choice":true,"side_choice": "RIGHT", "trial_number":56,"observed_reward":0,"unobserved_reward":0},{"RT":2775,"time": "2018-08-15 01:47:28pm", "schedule_type": "STATIC", "schedule_name": "random_19", "is_biased_choice":false,"side_choice": "LEFT", "trial_number":57,"observed_reward":0,"unobserved_reward":0},{"RT":4272,"time": "2018-08-15 01:47:30pm", "schedule_type": "STATIC", "schedule_name": "random_19", "is_biased_choice":true,"side_choice": "RIGHT", "trial_number":58,"observed_reward":1,"unobserved_reward":0},{"RT":4305,"time": "2018-08-15 01:47:35pm", "schedule_type": "STATIC", "schedule_name": "random_19", "is_biased_choice":true,"side_choice": "RIGHT", "trial_number":59,"observed_reward":0,"unobserved_reward":0},{"RT":3743,"time": "2018-08-15 01:47:38pm", "schedule_type": "STATIC", "schedule_name": "random_19", "is_biased_choice":true,"side_choice": "RIGHT", "trial_number":60,"observed_reward":0,"unobserved_reward":0},{"RT":2887,"time": "2018-08-15 01:47:41pm", "schedule_type": "STATIC", "schedule_name": "random_19", "is_biased_choice":false,"side_choice": "LEFT", "trial_number":61,"observed_reward":0,"unobserved_reward":1},{"RT":3616,"time": "2018-08-15 01:47:46pm", "schedule_type": "STATIC", "schedule_name": "random_19", "is_biased_choice":true,"side_choice": "RIGHT", "trial_number":62,"observed_reward":0,"unobserved_reward":0},{"RT":3192,"time": "2018-08-15 01:47:48pm", "schedule_type": "STATIC", "schedule_name": "random_19", "is_biased_choice":false,"side_choice": "LEFT", "trial_number":63,"observed_reward":0,"unobserved_reward":0},{"RT":4336,"time": "2018-08-15 01:47:52pm", "schedule_type": "STATIC", "schedule_name": "random_19", "is_biased_choice":true,"side_choice": "RIGHT", "trial_number":64,"observed_reward":0,"unobserved_reward":0},{"RT":3760,"time": "2018-08-15 01:47:57pm", "schedule_type": "STATIC", "schedule_name": "random_19", "is_biased_choice":true,"side_choice": "RIGHT", "trial_number":65,"observed_reward":0,"unobserved_reward":0},{"RT":3632,"time": "2018-08-15 01:48:00pm", "schedule_type": "STATIC", "schedule_name": "random_19", "is_biased_choice":false,"side_choice": "LEFT", "trial_number":66,"observed_reward":1,"unobserved_reward":0},{"RT":3854,"time": "2018-08-15 01:48:04pm", "schedule_type": "STATIC", "schedule_name": "random_19", "is_biased_choice":true,"side_choice": "RIGHT", "trial_number":67,"observed_reward":1,"unobserved_reward":0},{"RT":2986,"time": "2018-08-15 01:48:07pm", "schedule_type": "STATIC", "schedule_name": "random_19", "is_biased_choice":true,"side_choice": "RIGHT", "trial_number":68,"observed_reward":0,"unobserved_reward":0},{"RT":2671,"time": "2018-08-15 01:48:09pm", "schedule_type": "STATIC", "schedule_name": "random_19", "is_biased_choice":false,"side_choice": "LEFT", "trial_number":69,"observed_reward":1,"unobserved_reward":1},{"RT":3337,"time": "2018-08-15 01:48:13pm", "schedule_type": "STATIC", "schedule_name": "random_19", "is_biased_choice":true,"side_choice": "RIGHT", "trial_number":70,"observed_reward":1,"unobserved_reward":0},{"RT":3437,"time": "2018-08-15 01:48:16pm", "schedule_type": "STATIC", "schedule_name": "random_19", "is_biased_choice":true,"side_choice": "RIGHT", "trial_number":71,"observed_reward":0,"unobserved_reward":0},{"RT":2994,"time": "2018-08-15 01:48:19pm", "schedule_type": "STATIC", "schedule_name": "random_19", "is_biased_choice":false,"side_choice": "LEFT", "trial_number":72,"observed_reward":0,"unobserved_reward":0},{"RT":3248,"time": "2018-08-15 01:48:22pm", "schedule_type": "STATIC", "schedule_name": "random_19", "is_biased_choice":true,"side_choice": "RIGHT", "trial_number":73,"observed_reward":0,"unobserved_reward":0},{"RT":2674,"time": "2018-08-15 01:48:25pm", "schedule_type": "STATIC", "schedule_name": "random_19", "is_biased_choice":false,"side_choice": "LEFT", "trial_number":74,"observed_reward":1,"unobserved_reward":0},{"RT":3392,"time": "2018-08-15 01:48:29pm", "schedule_type": "STATIC", "schedule_name": "random_19", "is_biased_choice":true,"side_choice": "RIGHT", "trial_number":75,"observed_reward":0,"unobserved_reward":0},{"RT":3960,"time": "2018-08-15 01:48:33pm", "schedule_type": "STATIC", "schedule_name": "random_19", "is_biased_choice":false,"side_choice": "LEFT", "trial_number":76,"observed_reward":0,"unobserved_reward":1},{"RT":2457,"time": "2018-08-15 01:48:35pm", "schedule_type": "STATIC", "schedule_name": "random_19", "is_biased_choice":true,"side_choice": "RIGHT", "trial_number":77,"observed_reward":0,"unobserved_reward":1},{"RT":2471,"time": "2018-08-15 01:48:37pm", "schedule_type": "STATIC", "schedule_name": "random_19", "is_biased_choice":false,"side_choice": "LEFT", "trial_number":78,"observed_reward":0,"unobserved_reward":0},{"RT":3113,"time": "2018-08-15 01:48:40pm", "schedule_type": "STATIC", "schedule_name": "random_19", "is_biased_choice":true,"side_choice": "RIGHT", "trial_number":79,"observed_reward":0,"unobserved_reward":0},{"RT":4166,"time": "2018-08-15 01:48:45pm", "schedule_type": "STATIC", "schedule_name": "random_19", "is_biased_choice":true,"side_choice": "RIGHT", "trial_number":80,"observed_reward":1,"unobserved_reward":0},{"RT":4457,"time": "2018-08-15 01:48:50pm", "schedule_type": "STATIC", "schedule_name": "random_19", "is_biased_choice":true,"side_choice": "RIGHT", "trial_number":81,"observed_reward":0,"unobserved_reward":0},{"RT":3671,"time": "2018-08-15 01:48:53pm", "schedule_type": "STATIC", "schedule_name": "random_19", "is_biased_choice":true,"side_choice": "RIGHT", "trial_number":82,"observed_reward":0,"unobserved_reward":0},{"RT":5339,"time": "2018-08-15 01:48:58pm", "schedule_type": "STATIC", "schedule_name": "random_19", "is_biased_choice":true,"side_choice": "RIGHT", "trial_number":83,"observed_reward":0,"unobserved_reward":0},{"RT":2877,"time": "2018-08-15 01:49:01pm", "schedule_type": "STATIC", "schedule_name": "random_19", "is_biased_choice":false,"side_choice": "LEFT", "trial_number":84,"observed_reward":0,"unobserved_reward":0},{"RT":3263,"time": "2018-08-15 01:49:04pm", "schedule_type": "STATIC", "schedule_name": "random_19", "is_biased_choice":true,"side_choice": "RIGHT", "trial_number":85,"observed_reward":0,"unobserved_reward":0},{"RT":3763,"time": "2018-08-15 01:49:08pm", "schedule_type": "STATIC", "schedule_name": "random_19", "is_biased_choice":false,"side_choice": "LEFT", "trial_number":86,"observed_reward":0,"unobserved_reward":0},{"RT":2918,"time": "2018-08-15 01:49:11pm", "schedule_type": "STATIC", "schedule_name": "random_19", "is_biased_choice":true,"side_choice": "RIGHT", "trial_number":87,"observed_reward":0,"unobserved_reward":0},{"RT":4255,"time": "2018-08-15 01:49:16pm", "schedule_type": "STATIC", "schedule_name": "random_19", "is_biased_choice":false,"side_choice": "LEFT", "trial_number":88,"observed_reward":1,"unobserved_reward":0},{"RT":3016,"time": "2018-08-15 01:49:18pm", "schedule_type": "STATIC", "schedule_name": "random_19", "is_biased_choice":true,"side_choice": "RIGHT", "trial_number":89,"observed_reward":0,"unobserved_reward":1},{"RT":2473,"time": "2018-08-15 01:49:22pm", "schedule_type": "STATIC", "schedule_name": "random_19", "is_biased_choice":false,"side_choice": "LEFT", "trial_number":90,"observed_reward":1,"unobserved_reward":0},{"RT":10672,"time": "2018-08-15 01:49:32pm", "schedule_type": "STATIC", "schedule_name": "random_19", "is_biased_choice":true,"side_choice": "RIGHT", "trial_number":91,"observed_reward":0,"unobserved_reward":0},{"RT":12840,"time": "2018-08-15 01:49:44pm", "schedule_type": "STATIC", "schedule_name": "random_19", "is_biased_choice":true,"side_choice": "RIGHT", "trial_number":92,"observed_reward":0,"unobserved_reward":1},{"RT":3855,"time": "2018-08-15 01:49:48pm", "schedule_type": "STATIC", "schedule_name": "random_19", "is_biased_choice":true,"side_choice": "RIGHT", "trial_number":93,"observed_reward":0,"unobserved_reward":0},{"RT":5825,"time": "2018-08-15 01:49:54pm", "schedule_type": "STATIC", "schedule_name": "random_19", "is_biased_choice":true,"side_choice": "RIGHT", "trial_number":94,"observed_reward":1,"unobserved_reward":1},{"RT":3623,"time": "2018-08-15 01:49:58pm", "schedule_type": "STATIC", "schedule_name": "random_19", "is_biased_choice":true,"side_choice": "RIGHT", "trial_number":95,"observed_reward":0,"unobserved_reward":0},{"RT":2912,"time": "2018-08-15 01:50:00pm", "schedule_type": "STATIC", "schedule_name": "random_19", "is_biased_choice":false,"side_choice": "LEFT", "trial_number":96,"observed_reward":0,"unobserved_reward":0},{"RT":3264,"time": "2018-08-15 01:50:04pm", "schedule_type": "STATIC", "schedule_name": "random_19", "is_biased_choice":true,"side_choice": "RIGHT", "trial_number":97,"observed_reward":0,"unobserved_reward":1},{"RT":3416,"time": "2018-08-15 01:50:07pm", "schedule_type": "STATIC", "schedule_name": "random_19", "is_biased_choice":false,"side_choice": "LEFT", "trial_number":98,"observed_reward":0,"unobserved_reward":0},{"RT":4410,"time": "2018-08-15 01:50:11pm", "schedule_type": "STATIC", "schedule_name": "random_19", "is_biased_choice":true,"side_choice": "RIGHT", "trial_number":99,"observed_reward":1,"unobserved_reward":0},