[{"RT":13264,"time": "2018-08-15 03:28:53pm", "schedule_type": "STATIC", "schedule_name": "random_19", "is_biased_choice":false,"side_choice": "LEFT", "trial_number":0,"observed_reward":0,"unobserved_reward":0},{"RT":3615,"time": "2018-08-15 03:28:56pm", "schedule_type": "STATIC", "schedule_name": "random_19", "is_biased_choice":true,"side_choice": "RIGHT", "trial_number":1,"observed_reward":1,"unobserved_reward":0},{"RT":3471,"time": "2018-08-15 03:29:00pm", "schedule_type": "STATIC", "schedule_name": "random_19", "is_biased_choice":true,"side_choice": "RIGHT", "trial_number":2,"observed_reward":0,"unobserved_reward":0},{"RT":5888,"time": "2018-08-15 03:29:05pm", "schedule_type": "STATIC", "schedule_name": "random_19", "is_biased_choice":false,"side_choice": "LEFT", "trial_number":3,"observed_reward":0,"unobserved_reward":0},{"RT":2872,"time": "2018-08-15 03:29:08pm", "schedule_type": "STATIC", "schedule_name": "random_19", "is_biased_choice":true,"side_choice": "RIGHT", "trial_number":4,"observed_reward":0,"unobserved_reward":0},{"RT":2632,"time": "2018-08-15 03:29:11pm", "schedule_type": "STATIC", "schedule_name": "random_19", "is_biased_choice":false,"side_choice": "LEFT", "trial_number":5,"observed_reward":1,"unobserved_reward":1},{"RT":3815,"time": "2018-08-15 03:29:15pm", "schedule_type": "STATIC", "schedule_name": "random_19", "is_biased_choice":true,"side_choice": "RIGHT", "trial_number":6,"observed_reward":0,"unobserved_reward":0},{"RT":3240,"time": "2018-08-15 03:29:18pm", "schedule_type": "STATIC", "schedule_name": "random_19", "is_biased_choice":false,"side_choice": "LEFT", "trial_number":7,"observed_reward":0,"unobserved_reward":0},{"RT":2665,"time": "2018-08-15 03:29:20pm", "schedule_type": "STATIC", "schedule_name": "random_19", "is_biased_choice":true,"side_choice": "RIGHT", "trial_number":8,"observed_reward":1,"unobserved_reward":0},{"RT":7415,"time": "2018-08-15 03:29:28pm", "schedule_type": "STATIC", "schedule_name": "random_19", "is_biased_choice":true,"side_choice": "RIGHT", "trial_number":9,"observed_reward":0,"unobserved_reward":0},{"RT":2649,"time": "2018-08-15 03:29:30pm", "schedule_type": "STATIC", "schedule_name": "random_19", "is_biased_choice":false,"side_choice": "LEFT", "trial_number":10,"observed_reward":0,"unobserved_reward":0},{"RT":4024,"time": "2018-08-15 03:29:35pm", "schedule_type": "STATIC", "schedule_name": "random_19", "is_biased_choice":true,"side_choice": "RIGHT", "trial_number":11,"observed_reward":0,"unobserved_reward":0},{"RT":2896,"time": "2018-08-15 03:29:37pm", "schedule_type": "STATIC", "schedule_name": "random_19", "is_biased_choice":false,"side_choice": "LEFT", "trial_number":12,"observed_reward":0,"unobserved_reward":0},{"RT":5305,"time": "2018-08-15 03:29:43pm", "schedule_type": "STATIC", "schedule_name": "random_19", "is_biased_choice":true,"side_choice": "RIGHT", "trial_number":13,"observed_reward":0,"unobserved_reward":0},{"RT":2776,"time": "2018-08-15 03:29:45pm", "schedule_type": "STATIC", "schedule_name": "random_19", "is_biased_choice":true,"side_choice": "RIGHT", "trial_number":14,"observed_reward":0,"unobserved_reward":0},{"RT":2943,"time": "2018-08-15 03:29:48pm", "schedule_type": "STATIC", "schedule_name": "random_19", "is_biased_choice":true,"side_choice": "RIGHT", "trial_number":15,"observed_reward":1,"unobserved_reward":1},{"RT":7031,"time": "2018-08-15 03:29:56pm", "schedule_type": "STATIC", "schedule_name": "random_19", "is_biased_choice":true,"side_choice": "RIGHT", "trial_number":16,"observed_reward":1,"unobserved_reward":1},{"RT":2643,"time": "2018-08-15 03:29:58pm", "schedule_type": "STATIC", "schedule_name": "random_19", "is_biased_choice":true,"side_choice": "RIGHT", "trial_number":17,"observed_reward":0,"unobserved_reward":1},{"RT":2423,"time": "2018-08-15 03:30:00pm", "schedule_type": "STATIC", "schedule_name": "random_19", "is_biased_choice":true,"side_choice": "RIGHT", "trial_number":18,"observed_reward":0,"unobserved_reward":0},{"RT":2920,"time": "2018-08-15 03:30:03pm", "schedule_type": "STATIC", "schedule_name": "random_19", "is_biased_choice":true,"side_choice": "RIGHT", "trial_number":19,"observed_reward":0,"unobserved_reward":0},{"RT":2776,"time": "2018-08-15 03:30:06pm", "schedule_type": "STATIC", "schedule_name": "random_19", "is_biased_choice":true,"side_choice": "RIGHT", "trial_number":20,"observed_reward":0,"unobserved_reward":0},{"RT":2663,"time": "2018-08-15 03:30:09pm", "schedule_type": "STATIC", "schedule_name": "random_19", "is_biased_choice":true,"side_choice": "RIGHT", "trial_number":21,"observed_reward":0,"unobserved_reward":1},{"RT":3073,"time": "2018-08-15 03:30:12pm", "schedule_type": "STATIC", "schedule_name": "random_19", "is_biased_choice":false,"side_choice": "LEFT", "trial_number":22,"observed_reward":0,"unobserved_reward":0},{"RT":2272,"time": "2018-08-15 03:30:14pm", "schedule_type": "STATIC", "schedule_name": "random_19", "is_biased_choice":true,"side_choice": "RIGHT", "trial_number":23,"observed_reward":0,"unobserved_reward":1},{"RT":2856,"time": "2018-08-15 03:30:17pm", "schedule_type": "STATIC", "schedule_name": "random_19", "is_biased_choice":false,"side_choice": "LEFT", "trial_number":24,"observed_reward":1,"unobserved_reward":0},{"RT":3855,"time": "2018-08-15 03:30:21pm", "schedule_type": "STATIC", "schedule_name": "random_19", "is_biased_choice":false,"side_choice": "LEFT", "trial_number":25,"observed_reward":0,"unobserved_reward":0},{"RT":2745,"time": "2018-08-15 03:30:24pm", "schedule_type": "STATIC", "schedule_name": "random_19", "is_biased_choice":true,"side_choice": "RIGHT", "trial_number":26,"observed_reward":0,"unobserved_reward":0},{"RT":2824,"time": "2018-08-15 03:30:26pm", "schedule_type": "STATIC", "schedule_name": "random_19", "is_biased_choice":false,"side_choice": "LEFT", "trial_number":27,"observed_reward":0,"unobserved_reward":1},{"RT":2822,"time": "2018-08-15 03:30:29pm", "schedule_type": "STATIC", "schedule_name": "random_19", "is_biased_choice":true,"side_choice": "RIGHT", "trial_number":28,"observed_reward":1,"unobserved_reward":0},{"RT":2514,"time": "2018-08-15 03:30:32pm", "schedule_type": "STATIC", "schedule_name": "random_19", "is_biased_choice":true,"side_choice": "RIGHT", "trial_number":29,"observed_reward":1,"unobserved_reward":0},{"RT":2441,"time": "2018-08-15 03:30:34pm", "schedule_type": "STATIC", "schedule_name": "random_19", "is_biased_choice":true,"side_choice": "RIGHT", "trial_number":30,"observed_reward":0,"unobserved_reward":0},{"RT":2630,"time": "2018-08-15 03:30:37pm", "schedule_type": "STATIC", "schedule_name": "random_19", "is_biased_choice":true,"side_choice": "RIGHT", "trial_number":31,"observed_reward":1,"unobserved_reward":1},{"RT":2344,"time": "2018-08-15 03:30:39pm", "schedule_type": "STATIC", "schedule_name": "random_19", "is_biased_choice":true,"side_choice": "RIGHT", "trial_number":32,"observed_reward":0,"unobserved_reward":0},{"RT":2728,"time": "2018-08-15 03:30:42pm", "schedule_type": "STATIC", "schedule_name": "random_19", "is_biased_choice":false,"side_choice": "LEFT", "trial_number":33,"observed_reward":0,"unobserved_reward":0},{"RT":4791,"time": "2018-08-15 03:30:47pm", "schedule_type": "STATIC", "schedule_name": "random_19", "is_biased_choice":true,"side_choice": "RIGHT", "trial_number":34,"observed_reward":0,"unobserved_reward":0},{"RT":2569,"time": "2018-08-15 03:30:49pm", "schedule_type": "STATIC", "schedule_name": "random_19", "is_biased_choice":false,"side_choice": "LEFT", "trial_number":35,"observed_reward":0,"unobserved_reward":0},{"RT":2600,"time": "2018-08-15 03:30:52pm", "schedule_type": "STATIC", "schedule_name": "random_19", "is_biased_choice":true,"side_choice": "RIGHT", "trial_number":36,"observed_reward":1,"unobserved_reward":1},{"RT":2568,"time": "2018-08-15 03:30:54pm", "schedule_type": "STATIC", "schedule_name": "random_19", "is_biased_choice":false,"side_choice": "LEFT", "trial_number":37,"observed_reward":0,"unobserved_reward":0},{"RT":2538,"time": "2018-08-15 03:30:57pm", "schedule_type": "STATIC", "schedule_name": "random_19", "is_biased_choice":true,"side_choice": "RIGHT", "trial_number":38,"observed_reward":0,"unobserved_reward":1},{"RT":2597,"time": "2018-08-15 03:31:00pm", "schedule_type": "STATIC", "schedule_name": "random_19", "is_biased_choice":false,"side_choice": "LEFT", "trial_number":39,"observed_reward":0,"unobserved_reward":0},{"RT":2449,"time": "2018-08-15 03:31:02pm", "schedule_type": "STATIC", "schedule_name": "random_19", "is_biased_choice":true,"side_choice": "RIGHT", "trial_number":40,"observed_reward":1,"unobserved_reward":0},{"RT":2504,"time": "2018-08-15 03:31:05pm", "schedule_type": "STATIC", "schedule_name": "random_19", "is_biased_choice":true,"side_choice": "RIGHT", "trial_number":41,"observed_reward":0,"unobserved_reward":0},{"RT":2705,"time": "2018-08-15 03:31:07pm", "schedule_type": "STATIC", "schedule_name": "random_19", "is_biased_choice":false,"side_choice": "LEFT", "trial_number":42,"observed_reward":0,"unobserved_reward":0},{"RT":2599,"time": "2018-08-15 03:31:10pm", "schedule_type": "STATIC", "schedule_name": "random_19", "is_biased_choice":true,"side_choice": "RIGHT", "trial_number":43,"observed_reward":0,"unobserved_reward":0},{"RT":2416,"time": "2018-08-15 03:31:12pm", "schedule_type": "STATIC", "schedule_name": "random_19", "is_biased_choice":true,"side_choice": "RIGHT", "trial_number":44,"observed_reward":0,"unobserved_reward":1},{"RT":2552,"time": "2018-08-15 03:31:15pm", "schedule_type": "STATIC", "schedule_name": "random_19", "is_biased_choice":false,"side_choice": "LEFT", "trial_number":45,"observed_reward":0,"unobserved_reward":0},{"RT":2617,"time": "2018-08-15 03:31:17pm", "schedule_type": "STATIC", "schedule_name": "random_19", "is_biased_choice":true,"side_choice": "RIGHT", "trial_number":46,"observed_reward":0,"unobserved_reward":0},{"RT":2599,"time": "2018-08-15 03:31:20pm", "schedule_type": "STATIC", "schedule_name": "random_19", "is_biased_choice":false,"side_choice": "LEFT", "trial_number":47,"observed_reward":1,"unobserved_reward":0},{"RT":2528,"time": "2018-08-15 03:31:23pm", "schedule_type": "STATIC", "schedule_name": "random_19", "is_biased_choice":true,"side_choice": "RIGHT", "trial_number":48,"observed_reward":1,"unobserved_reward":0},{"RT":2336,"time": "2018-08-15 03:31:25pm", "schedule_type": "STATIC", "schedule_name": "random_19", "is_biased_choice":true,"side_choice": "RIGHT", "trial_number":49,"observed_reward":0,"unobserved_reward":1},{"RT":2448,"time": "2018-08-15 03:31:27pm", "schedule_type": "STATIC", "schedule_name": "random_19", "is_biased_choice":false,"side_choice": "LEFT", "trial_number":50,"observed_reward":1,"unobserved_reward":0},{"RT":2512,"time": "2018-08-15 03:31:30pm", "schedule_type": "STATIC", "schedule_name": "random_19", "is_biased_choice":false,"side_choice": "LEFT", "trial_number":51,"observed_reward":0,"unobserved_reward":1},{"RT":2480,"time": "2018-08-15 03:31:32pm", "schedule_type": "STATIC", "schedule_name": "random_19", "is_biased_choice":true,"side_choice": "RIGHT", "trial_number":52,"observed_reward":1,"unobserved_reward":0},{"RT":2432,"time": "2018-08-15 03:31:35pm", "schedule_type": "STATIC", "schedule_name": "random_19", "is_biased_choice":false,"side_choice": "LEFT", "trial_number":53,"observed_reward":0,"unobserved_reward":1},{"RT":2496,"time": "2018-08-15 03:31:37pm", "schedule_type": "STATIC", "schedule_name": "random_19", "is_biased_choice":true,"side_choice": "RIGHT", "trial_number":54,"observed_reward":0,"unobserved_reward":1},{"RT":2440,"time": "2018-08-15 03:31:40pm", "schedule_type": "STATIC", "schedule_name": "random_19", "is_biased_choice":false,"side_choice": "LEFT", "trial_number":55,"observed_reward":0,"unobserved_reward":1},{"RT":2601,"time": "2018-08-15 03:31:42pm", "schedule_type": "STATIC", "schedule_name": "random_19", "is_biased_choice":true,"side_choice": "RIGHT", "trial_number":56,"observed_reward":0,"unobserved_reward":0},{"RT":2432,"time": "2018-08-15 03:31:45pm", "schedule_type": "STATIC", "schedule_name": "random_19", "is_biased_choice":false,"side_choice": "LEFT", "trial_number":57,"observed_reward":0,"unobserved_reward":0},{"RT":3167,"time": "2018-08-15 03:31:48pm", "schedule_type": "STATIC", "schedule_name": "random_19", "is_biased_choice":true,"side_choice": "RIGHT", "trial_number":58,"observed_reward":1,"unobserved_reward":0},{"RT":2681,"time": "2018-08-15 03:31:51pm", "schedule_type": "STATIC", "schedule_name": "random_19", "is_biased_choice":false,"side_choice": "LEFT", "trial_number":59,"observed_reward":0,"unobserved_reward":0},{"RT":2616,"time": "2018-08-15 03:31:53pm", "schedule_type": "STATIC", "schedule_name": "random_19", "is_biased_choice":true,"side_choice": "RIGHT", "trial_number":60,"observed_reward":0,"unobserved_reward":0},{"RT":2560,"time": "2018-08-15 03:31:56pm", "schedule_type": "STATIC", "schedule_name": "random_19", "is_biased_choice":true,"side_choice": "RIGHT", "trial_number":61,"observed_reward":1,"unobserved_reward":0},{"RT":2623,"time": "2018-08-15 03:31:58pm", "schedule_type": "STATIC", "schedule_name": "random_19", "is_biased_choice":true,"side_choice": "RIGHT", "trial_number":62,"observed_reward":0,"unobserved_reward":0},{"RT":2481,"time": "2018-08-15 03:32:01pm", "schedule_type": "STATIC", "schedule_name": "random_19", "is_biased_choice":true,"side_choice": "RIGHT", "trial_number":63,"observed_reward":0,"unobserved_reward":0},{"RT":2504,"time": "2018-08-15 03:32:03pm", "schedule_type": "STATIC", "schedule_name": "random_19", "is_biased_choice":true,"side_choice": "RIGHT", "trial_number":64,"observed_reward":0,"unobserved_reward":0},{"RT":2456,"time": "2018-08-15 03:32:06pm", "schedule_type": "STATIC", "schedule_name": "random_19", "is_biased_choice":true,"side_choice": "RIGHT", "trial_number":65,"observed_reward":0,"unobserved_reward":0},{"RT":2839,"time": "2018-08-15 03:32:09pm", "schedule_type": "STATIC", "schedule_name": "random_19", "is_biased_choice":false,"side_choice": "LEFT", "trial_number":66,"observed_reward":1,"unobserved_reward":0},{"RT":2336,"time": "2018-08-15 03:32:11pm", "schedule_type": "STATIC", "schedule_name": "random_19", "is_biased_choice":false,"side_choice": "LEFT", "trial_number":67,"observed_reward":0,"unobserved_reward":1},{"RT":2520,"time": "2018-08-15 03:32:14pm", "schedule_type": "STATIC", "schedule_name": "random_19", "is_biased_choice":false,"side_choice": "LEFT", "trial_number":68,"observed_reward":0,"unobserved_reward":0},{"RT":2537,"time": "2018-08-15 03:32:16pm", "schedule_type": "STATIC", "schedule_name": "random_19", "is_biased_choice":false,"side_choice": "LEFT", "trial_number":69,"observed_reward":1,"unobserved_reward":1},{"RT":2527,"time": "2018-08-15 03:32:19pm", "schedule_type": "STATIC", "schedule_name": "random_19", "is_biased_choice":false,"side_choice": "LEFT", "trial_number":70,"observed_reward":0,"unobserved_reward":1},{"RT":2592,"time": "2018-08-15 03:32:21pm", "schedule_type": "STATIC", "schedule_name": "random_19", "is_biased_choice":true,"side_choice": "RIGHT", "trial_number":71,"observed_reward":0,"unobserved_reward":0},{"RT":2649,"time": "2018-08-15 03:32:24pm", "schedule_type": "STATIC", "schedule_name": "random_19", "is_biased_choice":false,"side_choice": "LEFT", "trial_number":72,"observed_reward":0,"unobserved_reward":0},{"RT":2473,"time": "2018-08-15 03:32:26pm", "schedule_type": "STATIC", "schedule_name": "random_19", "is_biased_choice":true,"side_choice": "RIGHT", "trial_number":73,"observed_reward":0,"unobserved_reward":0},{"RT":2798,"time": "2018-08-15 03:32:29pm", "schedule_type": "STATIC", "schedule_name": "random_19", "is_biased_choice":false,"side_choice": "LEFT", "trial_number":74,"observed_reward":1,"unobserved_reward":0},{"RT":2778,"time": "2018-08-15 03:32:32pm", "schedule_type": "STATIC", "schedule_name": "random_19", "is_biased_choice":true,"side_choice": "RIGHT", "trial_number":75,"observed_reward":0,"unobserved_reward":0},{"RT":2592,"time": "2018-08-15 03:32:34pm", "schedule_type": "STATIC", "schedule_name": "random_19", "is_biased_choice":false,"side_choice": "LEFT", "trial_number":76,"observed_reward":0,"unobserved_reward":1},{"RT":2767,"time": "2018-08-15 03:32:37pm", "schedule_type": "STATIC", "schedule_name": "random_19", "is_biased_choice":false,"side_choice": "LEFT", "trial_number":77,"observed_reward":1,"unobserved_reward":0},{"RT":2527,"time": "2018-08-15 03:32:40pm", "schedule_type": "STATIC", "schedule_name": "random_19", "is_biased_choice":false,"side_choice": "LEFT", "trial_number":78,"observed_reward":0,"unobserved_reward":0},{"RT":3217,"time": "2018-08-15 03:32:43pm", "schedule_type": "STATIC", "schedule_name": "random_19", "is_biased_choice":false,"side_choice": "LEFT", "trial_number":79,"observed_reward":0,"unobserved_reward":0},{"RT":2584,"time": "2018-08-15 03:32:46pm", "schedule_type": "STATIC", "schedule_name": "random_19", "is_biased_choice":true,"side_choice": "RIGHT", "trial_number":80,"observed_reward":1,"unobserved_reward":0},{"RT":2671,"time": "2018-08-15 03:32:48pm", "schedule_type": "STATIC", "schedule_name": "random_19", "is_biased_choice":false,"side_choice": "LEFT", "trial_number":81,"observed_reward":0,"unobserved_reward":0},{"RT":3489,"time": "2018-08-15 03:32:52pm", "schedule_type": "STATIC", "schedule_name": "random_19", "is_biased_choice":true,"side_choice": "RIGHT", "trial_number":82,"observed_reward":0,"unobserved_reward":0},{"RT":4729,"time": "2018-08-15 03:32:57pm", "schedule_type": "STATIC", "schedule_name": "random_19", "is_biased_choice":true,"side_choice": "RIGHT", "trial_number":83,"observed_reward":0,"unobserved_reward":0},{"RT":2935,"time": "2018-08-15 03:32:59pm", "schedule_type": "STATIC", "schedule_name": "random_19", "is_biased_choice":true,"side_choice": "RIGHT", "trial_number":84,"observed_reward":0,"unobserved_reward":0},{"RT":2615,"time": "2018-08-15 03:33:02pm", "schedule_type": "STATIC", "schedule_name": "random_19", "is_biased_choice":false,"side_choice": "LEFT", "trial_number":85,"observed_reward":0,"unobserved_reward":0},{"RT":2826,"time": "2018-08-15 03:33:05pm", "schedule_type": "STATIC", "schedule_name": "random_19", "is_biased_choice":true,"side_choice": "RIGHT", "trial_number":86,"observed_reward":0,"unobserved_reward":0},{"RT":2590,"time": "2018-08-15 03:33:07pm", "schedule_type": "STATIC", "schedule_name": "random_19", "is_biased_choice":true,"side_choice": "RIGHT", "trial_number":87,"observed_reward":0,"unobserved_reward":0},{"RT":2545,"time": "2018-08-15 03:33:10pm", "schedule_type": "STATIC", "schedule_name": "random_19", "is_biased_choice":false,"side_choice": "LEFT", "trial_number":88,"observed_reward":1,"unobserved_reward":0},{"RT":2336,"time": "2018-08-15 03:33:12pm", "schedule_type": "STATIC", "schedule_name": "random_19", "is_biased_choice":false,"side_choice": "LEFT", "trial_number":89,"observed_reward":1,"unobserved_reward":0},{"RT":2519,"time": "2018-08-15 03:33:15pm", "schedule_type": "STATIC", "schedule_name": "random_19", "is_biased_choice":false,"side_choice": "LEFT", "trial_number":90,"observed_reward":1,"unobserved_reward":0},{"RT":2665,"time": "2018-08-15 03:33:17pm", "schedule_type": "STATIC", "schedule_name": "random_19", "is_biased_choice":true,"side_choice": "RIGHT", "trial_number":91,"observed_reward":0,"unobserved_reward":0},{"RT":2440,"time": "2018-08-15 03:33:20pm", "schedule_type": "STATIC", "schedule_name": "random_19", "is_biased_choice":false,"side_choice": "LEFT", "trial_number":92,"observed_reward":1,"unobserved_reward":0},{"RT":2328,"time": "2018-08-15 03:33:22pm", "schedule_type": "STATIC", "schedule_name": "random_19", "is_biased_choice":false,"side_choice": "LEFT", "trial_number":93,"observed_reward":0,"unobserved_reward":0},{"RT":2776,"time": "2018-08-15 03:33:25pm", "schedule_type": "STATIC", "schedule_name": "random_19", "is_biased_choice":true,"side_choice": "RIGHT", "trial_number":94,"observed_reward":1,"unobserved_reward":1},{"RT":2592,"time": "2018-08-15 03:33:28pm", "schedule_type": "STATIC", "schedule_name": "random_19", "is_biased_choice":false,"side_choice": "LEFT", "trial_number":95,"observed_reward":0,"unobserved_reward":0},{"RT":2943,"time": "2018-08-15 03:33:31pm", "schedule_type": "STATIC", "schedule_name": "random_19", "is_biased_choice":true,"side_choice": "RIGHT", "trial_number":96,"observed_reward":0,"unobserved_reward":0},{"RT":2417,"time": "2018-08-15 03:33:33pm", "schedule_type": "STATIC", "schedule_name": "random_19", "is_biased_choice":false,"side_choice": "LEFT", "trial_number":97,"observed_reward":1,"unobserved_reward":0},{"RT":56064,"time": "2018-08-15 03:34:29pm", "schedule_type": "STATIC", "schedule_name": "random_19", "is_biased_choice":false,"side_choice": "LEFT", "trial_number":98,"observed_reward":0,"unobserved_reward":0},{"RT":2471,"time": "2018-08-15 03:34:32pm", "schedule_type": "STATIC", "schedule_name": "random_19", "is_biased_choice":true,"side_choice": "RIGHT", "trial_number":99,"observed_reward":1,"unobserved_reward":0},