[{"RT":17035,"time": "2018-08-15 03:32:30pm", "schedule_type": "STATIC", "schedule_name": "random_19", "is_biased_choice":true,"side_choice": "RIGHT", "trial_number":0,"observed_reward":0,"unobserved_reward":0},{"RT":6494,"time": "2018-08-15 03:32:37pm", "schedule_type": "STATIC", "schedule_name": "random_19", "is_biased_choice":true,"side_choice": "RIGHT", "trial_number":1,"observed_reward":1,"unobserved_reward":0},{"RT":5745,"time": "2018-08-15 03:32:42pm", "schedule_type": "STATIC", "schedule_name": "random_19", "is_biased_choice":false,"side_choice": "LEFT", "trial_number":2,"observed_reward":0,"unobserved_reward":0},{"RT":4737,"time": "2018-08-15 03:32:47pm", "schedule_type": "STATIC", "schedule_name": "random_19", "is_biased_choice":true,"side_choice": "RIGHT", "trial_number":3,"observed_reward":0,"unobserved_reward":0},{"RT":4928,"time": "2018-08-15 03:32:52pm", "schedule_type": "STATIC", "schedule_name": "random_19", "is_biased_choice":false,"side_choice": "LEFT", "trial_number":4,"observed_reward":0,"unobserved_reward":0},{"RT":4760,"time": "2018-08-15 03:32:57pm", "schedule_type": "STATIC", "schedule_name": "random_19", "is_biased_choice":false,"side_choice": "LEFT", "trial_number":5,"observed_reward":1,"unobserved_reward":1},{"RT":3568,"time": "2018-08-15 03:33:00pm", "schedule_type": "STATIC", "schedule_name": "random_19", "is_biased_choice":false,"side_choice": "LEFT", "trial_number":6,"observed_reward":0,"unobserved_reward":0},{"RT":5342,"time": "2018-08-15 03:33:06pm", "schedule_type": "STATIC", "schedule_name": "random_19", "is_biased_choice":false,"side_choice": "LEFT", "trial_number":7,"observed_reward":0,"unobserved_reward":0},{"RT":3774,"time": "2018-08-15 03:33:09pm", "schedule_type": "STATIC", "schedule_name": "random_19", "is_biased_choice":true,"side_choice": "RIGHT", "trial_number":8,"observed_reward":1,"unobserved_reward":0},{"RT":3491,"time": "2018-08-15 03:33:13pm", "schedule_type": "STATIC", "schedule_name": "random_19", "is_biased_choice":false,"side_choice": "LEFT", "trial_number":9,"observed_reward":0,"unobserved_reward":0},{"RT":3373,"time": "2018-08-15 03:33:16pm", "schedule_type": "STATIC", "schedule_name": "random_19", "is_biased_choice":true,"side_choice": "RIGHT", "trial_number":10,"observed_reward":0,"unobserved_reward":0},{"RT":3524,"time": "2018-08-15 03:33:20pm", "schedule_type": "STATIC", "schedule_name": "random_19", "is_biased_choice":true,"side_choice": "RIGHT", "trial_number":11,"observed_reward":0,"unobserved_reward":0},{"RT":4142,"time": "2018-08-15 03:33:24pm", "schedule_type": "STATIC", "schedule_name": "random_19", "is_biased_choice":false,"side_choice": "LEFT", "trial_number":12,"observed_reward":0,"unobserved_reward":0},{"RT":7202,"time": "2018-08-15 03:33:31pm", "schedule_type": "STATIC", "schedule_name": "random_19", "is_biased_choice":true,"side_choice": "RIGHT", "trial_number":13,"observed_reward":0,"unobserved_reward":0},{"RT":4009,"time": "2018-08-15 03:33:35pm", "schedule_type": "STATIC", "schedule_name": "random_19", "is_biased_choice":true,"side_choice": "RIGHT", "trial_number":14,"observed_reward":0,"unobserved_reward":0},{"RT":2679,"time": "2018-08-15 03:33:38pm", "schedule_type": "STATIC", "schedule_name": "random_19", "is_biased_choice":false,"side_choice": "LEFT", "trial_number":15,"observed_reward":1,"unobserved_reward":1},{"RT":13961,"time": "2018-08-15 03:33:52pm", "schedule_type": "STATIC", "schedule_name": "random_19", "is_biased_choice":true,"side_choice": "RIGHT", "trial_number":16,"observed_reward":1,"unobserved_reward":1},{"RT":5127,"time": "2018-08-15 03:33:57pm", "schedule_type": "STATIC", "schedule_name": "random_19", "is_biased_choice":false,"side_choice": "LEFT", "trial_number":17,"observed_reward":1,"unobserved_reward":0},{"RT":3440,"time": "2018-08-15 03:34:00pm", "schedule_type": "STATIC", "schedule_name": "random_19", "is_biased_choice":true,"side_choice": "RIGHT", "trial_number":18,"observed_reward":0,"unobserved_reward":0},{"RT":2881,"time": "2018-08-15 03:34:03pm", "schedule_type": "STATIC", "schedule_name": "random_19", "is_biased_choice":false,"side_choice": "LEFT", "trial_number":19,"observed_reward":0,"unobserved_reward":0},{"RT":2879,"time": "2018-08-15 03:34:06pm", "schedule_type": "STATIC", "schedule_name": "random_19", "is_biased_choice":false,"side_choice": "LEFT", "trial_number":20,"observed_reward":0,"unobserved_reward":0},{"RT":3144,"time": "2018-08-15 03:34:09pm", "schedule_type": "STATIC", "schedule_name": "random_19", "is_biased_choice":false,"side_choice": "LEFT", "trial_number":21,"observed_reward":1,"unobserved_reward":0},{"RT":2815,"time": "2018-08-15 03:34:12pm", "schedule_type": "STATIC", "schedule_name": "random_19", "is_biased_choice":true,"side_choice": "RIGHT", "trial_number":22,"observed_reward":0,"unobserved_reward":0},{"RT":2945,"time": "2018-08-15 03:34:15pm", "schedule_type": "STATIC", "schedule_name": "random_19", "is_biased_choice":false,"side_choice": "LEFT", "trial_number":23,"observed_reward":1,"unobserved_reward":0},{"RT":3281,"time": "2018-08-15 03:34:18pm", "schedule_type": "STATIC", "schedule_name": "random_19", "is_biased_choice":true,"side_choice": "RIGHT", "trial_number":24,"observed_reward":0,"unobserved_reward":1},{"RT":3150,"time": "2018-08-15 03:34:21pm", "schedule_type": "STATIC", "schedule_name": "random_19", "is_biased_choice":false,"side_choice": "LEFT", "trial_number":25,"observed_reward":0,"unobserved_reward":0},{"RT":3260,"time": "2018-08-15 03:34:25pm", "schedule_type": "STATIC", "schedule_name": "random_19", "is_biased_choice":true,"side_choice": "RIGHT", "trial_number":26,"observed_reward":0,"unobserved_reward":0},{"RT":3247,"time": "2018-08-15 03:34:28pm", "schedule_type": "STATIC", "schedule_name": "random_19", "is_biased_choice":false,"side_choice": "LEFT", "trial_number":27,"observed_reward":0,"unobserved_reward":1},{"RT":3455,"time": "2018-08-15 03:34:31pm", "schedule_type": "STATIC", "schedule_name": "random_19", "is_biased_choice":false,"side_choice": "LEFT", "trial_number":28,"observed_reward":0,"unobserved_reward":1},{"RT":2926,"time": "2018-08-15 03:34:34pm", "schedule_type": "STATIC", "schedule_name": "random_19", "is_biased_choice":false,"side_choice": "LEFT", "trial_number":29,"observed_reward":0,"unobserved_reward":1},{"RT":3490,"time": "2018-08-15 03:34:38pm", "schedule_type": "STATIC", "schedule_name": "random_19", "is_biased_choice":true,"side_choice": "RIGHT", "trial_number":30,"observed_reward":0,"unobserved_reward":0},{"RT":2937,"time": "2018-08-15 03:34:41pm", "schedule_type": "STATIC", "schedule_name": "random_19", "is_biased_choice":false,"side_choice": "LEFT", "trial_number":31,"observed_reward":1,"unobserved_reward":1},{"RT":3696,"time": "2018-08-15 03:34:44pm", "schedule_type": "STATIC", "schedule_name": "random_19", "is_biased_choice":true,"side_choice": "RIGHT", "trial_number":32,"observed_reward":0,"unobserved_reward":0},{"RT":3181,"time": "2018-08-15 03:34:48pm", "schedule_type": "STATIC", "schedule_name": "random_19", "is_biased_choice":false,"side_choice": "LEFT", "trial_number":33,"observed_reward":0,"unobserved_reward":0},{"RT":3715,"time": "2018-08-15 03:34:51pm", "schedule_type": "STATIC", "schedule_name": "random_19", "is_biased_choice":true,"side_choice": "RIGHT", "trial_number":34,"observed_reward":0,"unobserved_reward":0},{"RT":3262,"time": "2018-08-15 03:34:55pm", "schedule_type": "STATIC", "schedule_name": "random_19", "is_biased_choice":true,"side_choice": "RIGHT", "trial_number":35,"observed_reward":0,"unobserved_reward":0},{"RT":2936,"time": "2018-08-15 03:34:58pm", "schedule_type": "STATIC", "schedule_name": "random_19", "is_biased_choice":true,"side_choice": "RIGHT", "trial_number":36,"observed_reward":1,"unobserved_reward":1},{"RT":2838,"time": "2018-08-15 03:35:00pm", "schedule_type": "STATIC", "schedule_name": "random_19", "is_biased_choice":false,"side_choice": "LEFT", "trial_number":37,"observed_reward":0,"unobserved_reward":0},{"RT":2794,"time": "2018-08-15 03:35:03pm", "schedule_type": "STATIC", "schedule_name": "random_19", "is_biased_choice":true,"side_choice": "RIGHT", "trial_number":38,"observed_reward":0,"unobserved_reward":1},{"RT":2663,"time": "2018-08-15 03:35:06pm", "schedule_type": "STATIC", "schedule_name": "random_19", "is_biased_choice":false,"side_choice": "LEFT", "trial_number":39,"observed_reward":0,"unobserved_reward":0},{"RT":4833,"time": "2018-08-15 03:35:11pm", "schedule_type": "STATIC", "schedule_name": "random_19", "is_biased_choice":true,"side_choice": "RIGHT", "trial_number":40,"observed_reward":1,"unobserved_reward":0},{"RT":3369,"time": "2018-08-15 03:35:14pm", "schedule_type": "STATIC", "schedule_name": "random_19", "is_biased_choice":false,"side_choice": "LEFT", "trial_number":41,"observed_reward":0,"unobserved_reward":0},{"RT":2639,"time": "2018-08-15 03:35:17pm", "schedule_type": "STATIC", "schedule_name": "random_19", "is_biased_choice":true,"side_choice": "RIGHT", "trial_number":42,"observed_reward":0,"unobserved_reward":0},{"RT":3081,"time": "2018-08-15 03:35:20pm", "schedule_type": "STATIC", "schedule_name": "random_19", "is_biased_choice":true,"side_choice": "RIGHT", "trial_number":43,"observed_reward":0,"unobserved_reward":0},{"RT":2643,"time": "2018-08-15 03:35:22pm", "schedule_type": "STATIC", "schedule_name": "random_19", "is_biased_choice":true,"side_choice": "RIGHT", "trial_number":44,"observed_reward":0,"unobserved_reward":1},{"RT":2493,"time": "2018-08-15 03:35:25pm", "schedule_type": "STATIC", "schedule_name": "random_19", "is_biased_choice":true,"side_choice": "RIGHT", "trial_number":45,"observed_reward":0,"unobserved_reward":0},{"RT":3742,"time": "2018-08-15 03:35:29pm", "schedule_type": "STATIC", "schedule_name": "random_19", "is_biased_choice":false,"side_choice": "LEFT", "trial_number":46,"observed_reward":0,"unobserved_reward":0},{"RT":2961,"time": "2018-08-15 03:35:32pm", "schedule_type": "STATIC", "schedule_name": "random_19", "is_biased_choice":false,"side_choice": "LEFT", "trial_number":47,"observed_reward":1,"unobserved_reward":0},{"RT":7854,"time": "2018-08-15 03:35:39pm", "schedule_type": "STATIC", "schedule_name": "random_19", "is_biased_choice":true,"side_choice": "RIGHT", "trial_number":48,"observed_reward":1,"unobserved_reward":0},{"RT":4492,"time": "2018-08-15 03:35:44pm", "schedule_type": "STATIC", "schedule_name": "random_19", "is_biased_choice":false,"side_choice": "LEFT", "trial_number":49,"observed_reward":1,"unobserved_reward":0},{"RT":3191,"time": "2018-08-15 03:35:47pm", "schedule_type": "STATIC", "schedule_name": "random_19", "is_biased_choice":false,"side_choice": "LEFT", "trial_number":50,"observed_reward":1,"unobserved_reward":0},{"RT":2921,"time": "2018-08-15 03:35:50pm", "schedule_type": "STATIC", "schedule_name": "random_19", "is_biased_choice":false,"side_choice": "LEFT", "trial_number":51,"observed_reward":0,"unobserved_reward":1},{"RT":3727,"time": "2018-08-15 03:35:54pm", "schedule_type": "STATIC", "schedule_name": "random_19", "is_biased_choice":false,"side_choice": "LEFT", "trial_number":52,"observed_reward":0,"unobserved_reward":1},{"RT":2688,"time": "2018-08-15 03:35:56pm", "schedule_type": "STATIC", "schedule_name": "random_19", "is_biased_choice":true,"side_choice": "RIGHT", "trial_number":53,"observed_reward":1,"unobserved_reward":0},{"RT":3636,"time": "2018-08-15 03:36:00pm", "schedule_type": "STATIC", "schedule_name": "random_19", "is_biased_choice":true,"side_choice": "RIGHT", "trial_number":54,"observed_reward":0,"unobserved_reward":1},{"RT":2687,"time": "2018-08-15 03:36:03pm", "schedule_type": "STATIC", "schedule_name": "random_19", "is_biased_choice":false,"side_choice": "LEFT", "trial_number":55,"observed_reward":0,"unobserved_reward":1},{"RT":3003,"time": "2018-08-15 03:36:06pm", "schedule_type": "STATIC", "schedule_name": "random_19", "is_biased_choice":true,"side_choice": "RIGHT", "trial_number":56,"observed_reward":0,"unobserved_reward":0},{"RT":2745,"time": "2018-08-15 03:36:09pm", "schedule_type": "STATIC", "schedule_name": "random_19", "is_biased_choice":false,"side_choice": "LEFT", "trial_number":57,"observed_reward":0,"unobserved_reward":0},{"RT":12829,"time": "2018-08-15 03:36:21pm", "schedule_type": "STATIC", "schedule_name": "random_19", "is_biased_choice":false,"side_choice": "LEFT", "trial_number":58,"observed_reward":0,"unobserved_reward":1},{"RT":4171,"time": "2018-08-15 03:36:26pm", "schedule_type": "STATIC", "schedule_name": "random_19", "is_biased_choice":true,"side_choice": "RIGHT", "trial_number":59,"observed_reward":0,"unobserved_reward":0},{"RT":2935,"time": "2018-08-15 03:36:29pm", "schedule_type": "STATIC", "schedule_name": "random_19", "is_biased_choice":false,"side_choice": "LEFT", "trial_number":60,"observed_reward":0,"unobserved_reward":0},{"RT":15230,"time": "2018-08-15 03:36:44pm", "schedule_type": "STATIC", "schedule_name": "random_19", "is_biased_choice":false,"side_choice": "LEFT", "trial_number":61,"observed_reward":0,"unobserved_reward":1},{"RT":4204,"time": "2018-08-15 03:36:48pm", "schedule_type": "STATIC", "schedule_name": "random_19", "is_biased_choice":true,"side_choice": "RIGHT", "trial_number":62,"observed_reward":0,"unobserved_reward":0},{"RT":2560,"time": "2018-08-15 03:36:50pm", "schedule_type": "STATIC", "schedule_name": "random_19", "is_biased_choice":true,"side_choice": "RIGHT", "trial_number":63,"observed_reward":0,"unobserved_reward":0},{"RT":3152,"time": "2018-08-15 03:36:54pm", "schedule_type": "STATIC", "schedule_name": "random_19", "is_biased_choice":true,"side_choice": "RIGHT", "trial_number":64,"observed_reward":0,"unobserved_reward":0},{"RT":2696,"time": "2018-08-15 03:36:56pm", "schedule_type": "STATIC", "schedule_name": "random_19", "is_biased_choice":false,"side_choice": "LEFT", "trial_number":65,"observed_reward":0,"unobserved_reward":0},{"RT":2914,"time": "2018-08-15 03:36:59pm", "schedule_type": "STATIC", "schedule_name": "random_19", "is_biased_choice":false,"side_choice": "LEFT", "trial_number":66,"observed_reward":1,"unobserved_reward":0},{"RT":2879,"time": "2018-08-15 03:37:02pm", "schedule_type": "STATIC", "schedule_name": "random_19", "is_biased_choice":true,"side_choice": "RIGHT", "trial_number":67,"observed_reward":1,"unobserved_reward":0},{"RT":3461,"time": "2018-08-15 03:37:06pm", "schedule_type": "STATIC", "schedule_name": "random_19", "is_biased_choice":true,"side_choice": "RIGHT", "trial_number":68,"observed_reward":0,"unobserved_reward":0},{"RT":55012,"time": "2018-08-15 03:38:01pm", "schedule_type": "STATIC", "schedule_name": "random_19", "is_biased_choice":false,"side_choice": "LEFT", "trial_number":69,"observed_reward":1,"unobserved_reward":1},{"RT":18886,"time": "2018-08-15 03:38:19pm", "schedule_type": "STATIC", "schedule_name": "random_19", "is_biased_choice":true,"side_choice": "RIGHT", "trial_number":70,"observed_reward":1,"unobserved_reward":0},{"RT":3592,"time": "2018-08-15 03:38:23pm", "schedule_type": "STATIC", "schedule_name": "random_19", "is_biased_choice":true,"side_choice": "RIGHT", "trial_number":71,"observed_reward":0,"unobserved_reward":0},{"RT":3714,"time": "2018-08-15 03:38:27pm", "schedule_type": "STATIC", "schedule_name": "random_19", "is_biased_choice":false,"side_choice": "LEFT", "trial_number":72,"observed_reward":0,"unobserved_reward":0},{"RT":3011,"time": "2018-08-15 03:38:30pm", "schedule_type": "STATIC", "schedule_name": "random_19", "is_biased_choice":true,"side_choice": "RIGHT", "trial_number":73,"observed_reward":0,"unobserved_reward":0},{"RT":2846,"time": "2018-08-15 03:38:33pm", "schedule_type": "STATIC", "schedule_name": "random_19", "is_biased_choice":true,"side_choice": "RIGHT", "trial_number":74,"observed_reward":0,"unobserved_reward":1},{"RT":3066,"time": "2018-08-15 03:38:36pm", "schedule_type": "STATIC", "schedule_name": "random_19", "is_biased_choice":true,"side_choice": "RIGHT", "trial_number":75,"observed_reward":0,"unobserved_reward":0},{"RT":2682,"time": "2018-08-15 03:38:38pm", "schedule_type": "STATIC", "schedule_name": "random_19", "is_biased_choice":true,"side_choice": "RIGHT", "trial_number":76,"observed_reward":1,"unobserved_reward":0},{"RT":3009,"time": "2018-08-15 03:38:41pm", "schedule_type": "STATIC", "schedule_name": "random_19", "is_biased_choice":true,"side_choice": "RIGHT", "trial_number":77,"observed_reward":0,"unobserved_reward":1},{"RT":2776,"time": "2018-08-15 03:38:44pm", "schedule_type": "STATIC", "schedule_name": "random_19", "is_biased_choice":false,"side_choice": "LEFT", "trial_number":78,"observed_reward":0,"unobserved_reward":0},{"RT":3970,"time": "2018-08-15 03:38:48pm", "schedule_type": "STATIC", "schedule_name": "random_19", "is_biased_choice":true,"side_choice": "RIGHT", "trial_number":79,"observed_reward":0,"unobserved_reward":0},{"RT":2847,"time": "2018-08-15 03:38:51pm", "schedule_type": "STATIC", "schedule_name": "random_19", "is_biased_choice":false,"side_choice": "LEFT", "trial_number":80,"observed_reward":0,"unobserved_reward":1},{"RT":3896,"time": "2018-08-15 03:38:55pm", "schedule_type": "STATIC", "schedule_name": "random_19", "is_biased_choice":true,"side_choice": "RIGHT", "trial_number":81,"observed_reward":0,"unobserved_reward":0},{"RT":3901,"time": "2018-08-15 03:38:59pm", "schedule_type": "STATIC", "schedule_name": "random_19", "is_biased_choice":false,"side_choice": "LEFT", "trial_number":82,"observed_reward":0,"unobserved_reward":0},{"RT":3620,"time": "2018-08-15 03:39:02pm", "schedule_type": "STATIC", "schedule_name": "random_19", "is_biased_choice":false,"side_choice": "LEFT", "trial_number":83,"observed_reward":0,"unobserved_reward":0},{"RT":2615,"time": "2018-08-15 03:39:05pm", "schedule_type": "STATIC", "schedule_name": "random_19", "is_biased_choice":true,"side_choice": "RIGHT", "trial_number":84,"observed_reward":0,"unobserved_reward":0},{"RT":4558,"time": "2018-08-15 03:39:10pm", "schedule_type": "STATIC", "schedule_name": "random_19", "is_biased_choice":true,"side_choice": "RIGHT", "trial_number":85,"observed_reward":0,"unobserved_reward":0},{"RT":2969,"time": "2018-08-15 03:39:13pm", "schedule_type": "STATIC", "schedule_name": "random_19", "is_biased_choice":false,"side_choice": "LEFT", "trial_number":86,"observed_reward":0,"unobserved_reward":0},{"RT":2744,"time": "2018-08-15 03:39:15pm", "schedule_type": "STATIC", "schedule_name": "random_19", "is_biased_choice":true,"side_choice": "RIGHT", "trial_number":87,"observed_reward":0,"unobserved_reward":0},{"RT":3560,"time": "2018-08-15 03:39:19pm", "schedule_type": "STATIC", "schedule_name": "random_19", "is_biased_choice":false,"side_choice": "LEFT", "trial_number":88,"observed_reward":1,"unobserved_reward":0},{"RT":3558,"time": "2018-08-15 03:39:22pm", "schedule_type": "STATIC", "schedule_name": "random_19", "is_biased_choice":false,"side_choice": "LEFT", "trial_number":89,"observed_reward":1,"unobserved_reward":0},{"RT":3615,"time": "2018-08-15 03:39:26pm", "schedule_type": "STATIC", "schedule_name": "random_19", "is_biased_choice":true,"side_choice": "RIGHT", "trial_number":90,"observed_reward":0,"unobserved_reward":1},{"RT":2763,"time": "2018-08-15 03:39:29pm", "schedule_type": "STATIC", "schedule_name": "random_19", "is_biased_choice":false,"side_choice": "LEFT", "trial_number":91,"observed_reward":0,"unobserved_reward":0},{"RT":2805,"time": "2018-08-15 03:39:32pm", "schedule_type": "STATIC", "schedule_name": "random_19", "is_biased_choice":true,"side_choice": "RIGHT", "trial_number":92,"observed_reward":0,"unobserved_reward":1},{"RT":2795,"time": "2018-08-15 03:39:34pm", "schedule_type": "STATIC", "schedule_name": "random_19", "is_biased_choice":false,"side_choice": "LEFT", "trial_number":93,"observed_reward":0,"unobserved_reward":0},{"RT":3401,"time": "2018-08-15 03:39:38pm", "schedule_type": "STATIC", "schedule_name": "random_19", "is_biased_choice":false,"side_choice": "LEFT", "trial_number":94,"observed_reward":1,"unobserved_reward":1},{"RT":3023,"time": "2018-08-15 03:39:41pm", "schedule_type": "STATIC", "schedule_name": "random_19", "is_biased_choice":false,"side_choice": "LEFT", "trial_number":95,"observed_reward":0,"unobserved_reward":0},{"RT":3033,"time": "2018-08-15 03:39:44pm", "schedule_type": "STATIC", "schedule_name": "random_19", "is_biased_choice":true,"side_choice": "RIGHT", "trial_number":96,"observed_reward":0,"unobserved_reward":0},{"RT":2730,"time": "2018-08-15 03:39:47pm", "schedule_type": "STATIC", "schedule_name": "random_19", "is_biased_choice":true,"side_choice": "RIGHT", "trial_number":97,"observed_reward":0,"unobserved_reward":1},{"RT":4262,"time": "2018-08-15 03:39:51pm", "schedule_type": "STATIC", "schedule_name": "random_19", "is_biased_choice":false,"side_choice": "LEFT", "trial_number":98,"observed_reward":0,"unobserved_reward":0},