trial_number, time, schedule_type, schedule_name, is_biased_choice, side_choice, RT, observed_reward, unobserved_reward, biased_reward, unbiased_reward
0,2018-08-15 05:05:07pm, STATIC, random_6, true, LEFT, 126006, 0, 0, 0, 0
1,2018-08-15 05:05:08pm, STATIC, random_6, true, LEFT, 3095, 1, 0, 1, 0
2,2018-08-15 05:05:31pm, STATIC, random_6, false, RIGHT, 28526, 1, 0, 0, 1
3,2018-08-15 05:05:35pm, STATIC, random_6, false, RIGHT, 4004, 0, 0, 0, 0
4,2018-08-15 05:05:39pm, STATIC, random_6, false, RIGHT, 3359, 0, 0, 0, 0
5,2018-08-15 05:05:41pm, STATIC, random_6, true, LEFT, 3064, 1, 0, 1, 0
6,2018-08-15 05:05:45pm, STATIC, random_6, true, LEFT, 3327, 1, 0, 1, 0
7,2018-08-15 05:05:48pm, STATIC, random_6, true, LEFT, 2786, 0, 1, 0, 1
8,2018-08-15 05:05:50pm, STATIC, random_6, true, LEFT, 2778, 0, 0, 0, 0
9,2018-08-15 05:05:53pm, STATIC, random_6, true, LEFT, 2546, 1, 0, 1, 0
10,2018-08-15 05:05:56pm, STATIC, random_6, true, LEFT, 2884, 1, 1, 1, 1
11,2018-08-15 05:05:58pm, STATIC, random_6, true, LEFT, 2618, 0, 1, 0, 1
12,2018-08-15 05:06:01pm, STATIC, random_6, true, LEFT, 2578, 0, 1, 0, 1
13,2018-08-15 05:06:04pm, STATIC, random_6, true, LEFT, 2834, 0, 0, 0, 0
14,2018-08-15 05:06:07pm, STATIC, random_6, true, LEFT, 2901, 0, 0, 0, 0
15,2018-08-15 05:06:10pm, STATIC, random_6, false, RIGHT, 3137, 0, 0, 0, 0
16,2018-08-15 05:06:12pm, STATIC, random_6, true, LEFT, 2582, 0, 0, 0, 0
17,2018-08-15 05:06:15pm, STATIC, random_6, false, RIGHT, 2720, 0, 0, 0, 0
18,2018-08-15 05:06:19pm, STATIC, random_6, true, LEFT, 3253, 0, 0, 0, 0
19,2018-08-15 05:06:21pm, STATIC, random_6, true, LEFT, 2789, 1, 0, 1, 0
20,2018-08-15 05:06:24pm, STATIC, random_6, true, LEFT, 2996, 1, 1, 1, 1
21,2018-08-15 05:06:28pm, STATIC, random_6, true, LEFT, 2870, 0, 0, 0, 0
22,2018-08-15 05:06:30pm, STATIC, random_6, false, RIGHT, 2729, 0, 0, 0, 0
23,2018-08-15 05:06:32pm, STATIC, random_6, false, RIGHT, 2550, 0, 0, 0, 0
24,2018-08-15 05:06:35pm, STATIC, random_6, false, RIGHT, 2696, 0, 1, 1, 0
25,2018-08-15 05:06:38pm, STATIC, random_6, true, LEFT, 2537, 0, 0, 0, 0
26,2018-08-15 05:06:40pm, STATIC, random_6, false, RIGHT, 2830, 0, 0, 0, 0
27,2018-08-15 05:07:59pm, STATIC, random_6, false, RIGHT, 73451, 1, 1, 1, 1
28,2018-08-15 05:07:59pm, STATIC, random_6, true, LEFT, 2880, 1, 1, 1, 1
29,2018-08-15 05:08:00pm, STATIC, random_6, true, LEFT, 2722, 0, 0, 0, 0
30,2018-08-15 05:08:02pm, STATIC, random_6, true, LEFT, 2711, 0, 0, 0, 0
31,2018-08-15 05:08:06pm, STATIC, random_6, true, LEFT, 3509, 0, 0, 0, 0
32,2018-08-15 05:08:12pm, STATIC, random_6, true, LEFT, 2886, 0, 0, 0, 0
33,2018-08-15 05:08:12pm, STATIC, random_6, true, LEFT, 3429, 0, 0, 0, 0
34,2018-08-15 05:08:16pm, STATIC, random_6, false, RIGHT, 3779, 1, 0, 0, 1
35,2018-08-15 05:08:21pm, STATIC, random_6, false, RIGHT, 4915, 1, 0, 0, 1
36,2018-08-15 05:08:44pm, STATIC, random_6, true, LEFT, 23215, 1, 0, 1, 0
37,2018-08-15 05:08:47pm, STATIC, random_6, true, LEFT, 2489, 0, 0, 0, 0
38,2018-08-15 05:08:49pm, STATIC, random_6, true, LEFT, 2591, 0, 0, 0, 0
39,2018-08-15 05:08:51pm, STATIC, random_6, false, RIGHT, 2484, 0, 0, 0, 0
40,2018-08-15 05:08:54pm, STATIC, random_6, false, RIGHT, 2351, 0, 0, 0, 0
41,2018-08-15 05:08:57pm, STATIC, random_6, true, LEFT, 2395, 0, 0, 0, 0
42,2018-08-15 05:08:59pm, STATIC, random_6, false, RIGHT, 2596, 1, 0, 0, 1
43,2018-08-15 05:09:01pm, STATIC, random_6, true, LEFT, 2597, 0, 0, 0, 0
44,2018-08-15 05:09:04pm, STATIC, random_6, true, LEFT, 2785, 0, 0, 0, 0
45,2018-08-15 05:09:52pm, STATIC, random_6, false, RIGHT, 46902, 0, 0, 0, 0
46,2018-08-15 05:09:54pm, STATIC, random_6, true, LEFT, 2609, 0, 1, 0, 1
47,2018-08-15 05:09:57pm, STATIC, random_6, true, LEFT, 2893, 0, 0, 0, 0
48,2018-08-15 05:09:59pm, STATIC, random_6, false, RIGHT, 2453, 0, 0, 0, 0
49,2018-08-15 05:10:01pm, STATIC, random_6, true, LEFT, 2339, 0, 0, 0, 0
50,2018-08-15 05:10:04pm, STATIC, random_6, true, LEFT, 2486, 1, 0, 1, 0
51,2018-08-15 05:10:08pm, STATIC, random_6, true, LEFT, 3350, 0, 1, 0, 1
52,2018-08-15 05:10:10pm, STATIC, random_6, true, LEFT, 2479, 0, 0, 0, 0
53,2018-08-15 05:10:12pm, STATIC, random_6, true, LEFT, 2368, 0, 1, 0, 1
54,2018-08-15 05:10:14pm, STATIC, random_6, true, LEFT, 2402, 0, 0, 0, 0
55,2018-08-15 05:10:19pm, STATIC, random_6, true, LEFT, 2839, 0, 0, 0, 0
56,2018-08-15 05:10:21pm, STATIC, random_6, true, LEFT, 4124, 1, 0, 1, 0
57,2018-08-15 05:10:27pm, STATIC, random_6, false, RIGHT, 4903, 0, 0, 0, 0
58,2018-08-15 05:10:29pm, STATIC, random_6, false, RIGHT, 3127, 0, 0, 0, 0
59,2018-08-15 05:10:32pm, STATIC, random_6, false, RIGHT, 2554, 0, 0, 0, 0
60,2018-08-15 05:10:35pm, STATIC, random_6, true, LEFT, 3378, 1, 1, 1, 1
61,2018-08-15 05:10:39pm, STATIC, random_6, true, LEFT, 2552, 0, 0, 0, 0
62,2018-08-15 05:10:40pm, STATIC, random_6, false, RIGHT, 2633, 0, 1, 1, 0
63,2018-08-15 05:10:43pm, STATIC, random_6, false, RIGHT, 2557, 0, 0, 0, 0
64,2018-08-15 05:10:45pm, STATIC, random_6, true, LEFT, 2496, 0, 0, 0, 0
65,2018-08-15 05:10:49pm, STATIC, random_6, false, RIGHT, 2611, 0, 0, 0, 0
66,2018-08-15 05:10:51pm, STATIC, random_6, true, LEFT, 2519, 0, 0, 0, 0
67,2018-08-15 05:10:53pm, STATIC, random_6, true, LEFT, 2667, 0, 0, 0, 0
68,2018-08-15 05:10:56pm, STATIC, random_6, false, RIGHT, 2533, 0, 0, 0, 0
69,2018-08-15 05:10:59pm, STATIC, random_6, true, LEFT, 2820, 0, 0, 0, 0
70,2018-08-15 05:11:01pm, STATIC, random_6, true, LEFT, 2465, 1, 0, 1, 0
71,2018-08-15 05:11:04pm, STATIC, random_6, true, LEFT, 2632, 0, 0, 0, 0
72,2018-08-15 05:11:17pm, STATIC, random_6, false, RIGHT, 2478, 1, 0, 0, 1
73,2018-08-15 05:11:17pm, STATIC, random_6, false, RIGHT, 3135, 0, 1, 1, 0
74,2018-08-15 05:11:17pm, STATIC, random_6, true, LEFT, 2867, 0, 0, 0, 0
75,2018-08-15 05:11:20pm, STATIC, random_6, true, LEFT, 2526, 0, 0, 0, 0
76,2018-08-15 05:11:21pm, STATIC, random_6, true, LEFT, 2421, 1, 1, 1, 1
77,2018-08-15 05:11:22pm, STATIC, random_6, true, LEFT, 2345, 0, 0, 0, 0
78,2018-08-15 05:11:23pm, STATIC, random_6, true, LEFT, 3562, 0, 0, 0, 0
79,2018-08-15 05:11:28pm, STATIC, random_6, true, LEFT, 3909, 0, 0, 0, 0
80,2018-08-15 05:11:31pm, STATIC, random_6, true, LEFT, 3731, 1, 1, 1, 1
81,2018-08-15 05:11:35pm, STATIC, random_6, false, RIGHT, 4060, 0, 0, 0, 0
82,2018-08-15 05:11:39pm, STATIC, random_6, true, LEFT, 3553, 0, 0, 0, 0
83,2018-08-15 05:11:41pm, STATIC, random_6, false, RIGHT, 2681, 1, 0, 0, 1
84,2018-08-15 05:11:44pm, STATIC, random_6, false, RIGHT, 3102, 1, 0, 0, 1
85,2018-08-15 05:11:47pm, STATIC, random_6, false, RIGHT, 2592, 0, 0, 0, 0
86,2018-08-15 05:11:49pm, STATIC, random_6, true, LEFT, 2575, 0, 0, 0, 0
87,2018-08-15 05:11:52pm, STATIC, random_6, true, LEFT, 2675, 0, 0, 0, 0
88,2018-08-15 05:11:55pm, STATIC, random_6, false, RIGHT, 2640, 0, 0, 0, 0
89,2018-08-15 05:11:58pm, STATIC, random_6, true, LEFT, 2563, 0, 1, 0, 1
90,2018-08-15 05:12:00pm, STATIC, random_6, true, LEFT, 2531, 0, 0, 0, 0
91,2018-08-15 05:12:02pm, STATIC, random_6, false, RIGHT, 2493, 1, 0, 0, 1
92,2018-08-15 05:12:05pm, STATIC, random_6, false, RIGHT, 2627, 0, 1, 1, 0
93,2018-08-15 05:12:08pm, STATIC, random_6, true, LEFT, 2425, 1, 0, 1, 0
94,2018-08-15 05:12:10pm, STATIC, random_6, true, LEFT, 3021, 0, 0, 0, 0
95,2018-08-15 05:12:13pm, STATIC, random_6, false, RIGHT, 2879, 0, 1, 1, 0
96,2018-08-15 05:12:17pm, STATIC, random_6, true, LEFT, 2868, 0, 1, 0, 1
97,2018-08-15 05:12:19pm, STATIC, random_6, false, RIGHT, 2636, 1, 1, 1, 1
98,2018-08-15 05:12:21pm, STATIC, random_6, false, RIGHT, 2533, 1, 1, 1, 1
99,2018-08-15 05:12:24pm, STATIC, random_6, false, RIGHT, 2582, 0, 1, 1, 0
