[{"RT":2499,"time": "2018-08-15 05:51:32pm", "schedule_type": "STATIC", "schedule_name": "random_6", "is_biased_choice":false,"side_choice": "RIGHT", "trial_number":0,"observed_reward":0,"unobserved_reward":0},{"RT":3702,"time": "2018-08-15 05:51:36pm", "schedule_type": "STATIC", "schedule_name": "random_6", "is_biased_choice":true,"side_choice": "LEFT", "trial_number":1,"observed_reward":1,"unobserved_reward":0},{"RT":3115,"time": "2018-08-15 05:51:39pm", "schedule_type": "STATIC", "schedule_name": "random_6", "is_biased_choice":true,"side_choice": "LEFT", "trial_number":2,"observed_reward":0,"unobserved_reward":1},{"RT":2697,"time": "2018-08-15 05:51:42pm", "schedule_type": "STATIC", "schedule_name": "random_6", "is_biased_choice":false,"side_choice": "RIGHT", "trial_number":3,"observed_reward":0,"unobserved_reward":0},{"RT":2900,"time": "2018-08-15 05:51:45pm", "schedule_type": "STATIC", "schedule_name": "random_6", "is_biased_choice":true,"side_choice": "LEFT", "trial_number":4,"observed_reward":0,"unobserved_reward":0},{"RT":2688,"time": "2018-08-15 05:51:47pm", "schedule_type": "STATIC", "schedule_name": "random_6", "is_biased_choice":true,"side_choice": "LEFT", "trial_number":5,"observed_reward":1,"unobserved_reward":0},{"RT":2930,"time": "2018-08-15 05:51:50pm", "schedule_type": "STATIC", "schedule_name": "random_6", "is_biased_choice":false,"side_choice": "RIGHT", "trial_number":6,"observed_reward":0,"unobserved_reward":1},{"RT":2625,"time": "2018-08-15 05:51:53pm", "schedule_type": "STATIC", "schedule_name": "random_6", "is_biased_choice":true,"side_choice": "LEFT", "trial_number":7,"observed_reward":0,"unobserved_reward":1},{"RT":2579,"time": "2018-08-15 05:51:55pm", "schedule_type": "STATIC", "schedule_name": "random_6", "is_biased_choice":false,"side_choice": "RIGHT", "trial_number":8,"observed_reward":0,"unobserved_reward":0},{"RT":2657,"time": "2018-08-15 05:51:58pm", "schedule_type": "STATIC", "schedule_name": "random_6", "is_biased_choice":false,"side_choice": "RIGHT", "trial_number":9,"observed_reward":0,"unobserved_reward":1},{"RT":2430,"time": "2018-08-15 05:52:00pm", "schedule_type": "STATIC", "schedule_name": "random_6", "is_biased_choice":false,"side_choice": "RIGHT", "trial_number":10,"observed_reward":1,"unobserved_reward":1},{"RT":2580,"time": "2018-08-15 05:52:03pm", "schedule_type": "STATIC", "schedule_name": "random_6", "is_biased_choice":false,"side_choice": "RIGHT", "trial_number":11,"observed_reward":1,"unobserved_reward":0},{"RT":2673,"time": "2018-08-15 05:52:06pm", "schedule_type": "STATIC", "schedule_name": "random_6", "is_biased_choice":false,"side_choice": "RIGHT", "trial_number":12,"observed_reward":1,"unobserved_reward":0},{"RT":2602,"time": "2018-08-15 05:52:08pm", "schedule_type": "STATIC", "schedule_name": "random_6", "is_biased_choice":true,"side_choice": "LEFT", "trial_number":13,"observed_reward":0,"unobserved_reward":0},{"RT":2486,"time": "2018-08-15 05:52:11pm", "schedule_type": "STATIC", "schedule_name": "random_6", "is_biased_choice":true,"side_choice": "LEFT", "trial_number":14,"observed_reward":0,"unobserved_reward":0},{"RT":2805,"time": "2018-08-15 05:52:14pm", "schedule_type": "STATIC", "schedule_name": "random_6", "is_biased_choice":false,"side_choice": "RIGHT", "trial_number":15,"observed_reward":0,"unobserved_reward":0},{"RT":2323,"time": "2018-08-15 05:52:16pm", "schedule_type": "STATIC", "schedule_name": "random_6", "is_biased_choice":true,"side_choice": "LEFT", "trial_number":16,"observed_reward":0,"unobserved_reward":0},{"RT":2219,"time": "2018-08-15 05:52:18pm", "schedule_type": "STATIC", "schedule_name": "random_6", "is_biased_choice":false,"side_choice": "RIGHT", "trial_number":17,"observed_reward":0,"unobserved_reward":0},{"RT":2290,"time": "2018-08-15 05:52:20pm", "schedule_type": "STATIC", "schedule_name": "random_6", "is_biased_choice":false,"side_choice": "RIGHT", "trial_number":18,"observed_reward":0,"unobserved_reward":0},{"RT":2432,"time": "2018-08-15 05:52:23pm", "schedule_type": "STATIC", "schedule_name": "random_6", "is_biased_choice":true,"side_choice": "LEFT", "trial_number":19,"observed_reward":1,"unobserved_reward":0},{"RT":2282,"time": "2018-08-15 05:52:25pm", "schedule_type": "STATIC", "schedule_name": "random_6", "is_biased_choice":true,"side_choice": "LEFT", "trial_number":20,"observed_reward":1,"unobserved_reward":1},{"RT":2400,"time": "2018-08-15 05:52:28pm", "schedule_type": "STATIC", "schedule_name": "random_6", "is_biased_choice":true,"side_choice": "LEFT", "trial_number":21,"observed_reward":0,"unobserved_reward":0},{"RT":2329,"time": "2018-08-15 05:52:30pm", "schedule_type": "STATIC", "schedule_name": "random_6", "is_biased_choice":false,"side_choice": "RIGHT", "trial_number":22,"observed_reward":0,"unobserved_reward":0},{"RT":2330,"time": "2018-08-15 05:52:32pm", "schedule_type": "STATIC", "schedule_name": "random_6", "is_biased_choice":true,"side_choice": "LEFT", "trial_number":23,"observed_reward":0,"unobserved_reward":0},{"RT":2307,"time": "2018-08-15 05:52:35pm", "schedule_type": "STATIC", "schedule_name": "random_6", "is_biased_choice":true,"side_choice": "LEFT", "trial_number":24,"observed_reward":1,"unobserved_reward":0},{"RT":2244,"time": "2018-08-15 05:52:37pm", "schedule_type": "STATIC", "schedule_name": "random_6", "is_biased_choice":true,"side_choice": "LEFT", "trial_number":25,"observed_reward":0,"unobserved_reward":0},{"RT":2283,"time": "2018-08-15 05:52:39pm", "schedule_type": "STATIC", "schedule_name": "random_6", "is_biased_choice":false,"side_choice": "RIGHT", "trial_number":26,"observed_reward":0,"unobserved_reward":0},{"RT":2212,"time": "2018-08-15 05:52:41pm", "schedule_type": "STATIC", "schedule_name": "random_6", "is_biased_choice":false,"side_choice": "RIGHT", "trial_number":27,"observed_reward":1,"unobserved_reward":1},{"RT":2253,"time": "2018-08-15 05:52:44pm", "schedule_type": "STATIC", "schedule_name": "random_6", "is_biased_choice":false,"side_choice": "RIGHT", "trial_number":28,"observed_reward":1,"unobserved_reward":1},{"RT":2362,"time": "2018-08-15 05:52:46pm", "schedule_type": "STATIC", "schedule_name": "random_6", "is_biased_choice":true,"side_choice": "LEFT", "trial_number":29,"observed_reward":0,"unobserved_reward":0},{"RT":2281,"time": "2018-08-15 05:52:48pm", "schedule_type": "STATIC", "schedule_name": "random_6", "is_biased_choice":true,"side_choice": "LEFT", "trial_number":30,"observed_reward":0,"unobserved_reward":0},{"RT":2214,"time": "2018-08-15 05:52:50pm", "schedule_type": "STATIC", "schedule_name": "random_6", "is_biased_choice":true,"side_choice": "LEFT", "trial_number":31,"observed_reward":0,"unobserved_reward":0},{"RT":2479,"time": "2018-08-15 05:52:53pm", "schedule_type": "STATIC", "schedule_name": "random_6", "is_biased_choice":false,"side_choice": "RIGHT", "trial_number":32,"observed_reward":0,"unobserved_reward":0},{"RT":2235,"time": "2018-08-15 05:52:55pm", "schedule_type": "STATIC", "schedule_name": "random_6", "is_biased_choice":true,"side_choice": "LEFT", "trial_number":33,"observed_reward":0,"unobserved_reward":0},{"RT":2200,"time": "2018-08-15 05:52:57pm", "schedule_type": "STATIC", "schedule_name": "random_6", "is_biased_choice":true,"side_choice": "LEFT", "trial_number":34,"observed_reward":0,"unobserved_reward":1},{"RT":2444,"time": "2018-08-15 05:53:00pm", "schedule_type": "STATIC", "schedule_name": "random_6", "is_biased_choice":false,"side_choice": "RIGHT", "trial_number":35,"observed_reward":1,"unobserved_reward":0},{"RT":2276,"time": "2018-08-15 05:53:02pm", "schedule_type": "STATIC", "schedule_name": "random_6", "is_biased_choice":false,"side_choice": "RIGHT", "trial_number":36,"observed_reward":0,"unobserved_reward":1},{"RT":2244,"time": "2018-08-15 05:53:04pm", "schedule_type": "STATIC", "schedule_name": "random_6", "is_biased_choice":false,"side_choice": "RIGHT", "trial_number":37,"observed_reward":0,"unobserved_reward":0},{"RT":2260,"time": "2018-08-15 05:53:07pm", "schedule_type": "STATIC", "schedule_name": "random_6", "is_biased_choice":false,"side_choice": "RIGHT", "trial_number":38,"observed_reward":0,"unobserved_reward":0},{"RT":2339,"time": "2018-08-15 05:53:09pm", "schedule_type": "STATIC", "schedule_name": "random_6", "is_biased_choice":true,"side_choice": "LEFT", "trial_number":39,"observed_reward":0,"unobserved_reward":0},{"RT":3910,"time": "2018-08-15 05:53:13pm", "schedule_type": "STATIC", "schedule_name": "random_6", "is_biased_choice":false,"side_choice": "RIGHT", "trial_number":40,"observed_reward":0,"unobserved_reward":0},{"RT":2338,"time": "2018-08-15 05:53:15pm", "schedule_type": "STATIC", "schedule_name": "random_6", "is_biased_choice":true,"side_choice": "LEFT", "trial_number":41,"observed_reward":0,"unobserved_reward":0},{"RT":2323,"time": "2018-08-15 05:53:17pm", "schedule_type": "STATIC", "schedule_name": "random_6", "is_biased_choice":false,"side_choice": "RIGHT", "trial_number":42,"observed_reward":1,"unobserved_reward":0},{"RT":2290,"time": "2018-08-15 05:53:20pm", "schedule_type": "STATIC", "schedule_name": "random_6", "is_biased_choice":false,"side_choice": "RIGHT", "trial_number":43,"observed_reward":0,"unobserved_reward":0},{"RT":2439,"time": "2018-08-15 05:53:22pm", "schedule_type": "STATIC", "schedule_name": "random_6", "is_biased_choice":false,"side_choice": "RIGHT", "trial_number":44,"observed_reward":0,"unobserved_reward":0},{"RT":2230,"time": "2018-08-15 05:53:24pm", "schedule_type": "STATIC", "schedule_name": "random_6", "is_biased_choice":true,"side_choice": "LEFT", "trial_number":45,"observed_reward":0,"unobserved_reward":0},{"RT":2181,"time": "2018-08-15 05:53:27pm", "schedule_type": "STATIC", "schedule_name": "random_6", "is_biased_choice":true,"side_choice": "LEFT", "trial_number":46,"observed_reward":0,"unobserved_reward":1},{"RT":2314,"time": "2018-08-15 05:53:29pm", "schedule_type": "STATIC", "schedule_name": "random_6", "is_biased_choice":true,"side_choice": "LEFT", "trial_number":47,"observed_reward":0,"unobserved_reward":0},{"RT":2276,"time": "2018-08-15 05:53:31pm", "schedule_type": "STATIC", "schedule_name": "random_6", "is_biased_choice":false,"side_choice": "RIGHT", "trial_number":48,"observed_reward":0,"unobserved_reward":0},{"RT":2478,"time": "2018-08-15 05:53:34pm", "schedule_type": "STATIC", "schedule_name": "random_6", "is_biased_choice":false,"side_choice": "RIGHT", "trial_number":49,"observed_reward":0,"unobserved_reward":0},{"RT":2268,"time": "2018-08-15 05:53:36pm", "schedule_type": "STATIC", "schedule_name": "random_6", "is_biased_choice":true,"side_choice": "LEFT", "trial_number":50,"observed_reward":1,"unobserved_reward":0},{"RT":2555,"time": "2018-08-15 05:53:38pm", "schedule_type": "STATIC", "schedule_name": "random_6", "is_biased_choice":true,"side_choice": "LEFT", "trial_number":51,"observed_reward":0,"unobserved_reward":1},{"RT":2275,"time": "2018-08-15 05:53:41pm", "schedule_type": "STATIC", "schedule_name": "random_6", "is_biased_choice":true,"side_choice": "LEFT", "trial_number":52,"observed_reward":0,"unobserved_reward":0},{"RT":2254,"time": "2018-08-15 05:53:43pm", "schedule_type": "STATIC", "schedule_name": "random_6", "is_biased_choice":false,"side_choice": "RIGHT", "trial_number":53,"observed_reward":1,"unobserved_reward":0},{"RT":2266,"time": "2018-08-15 05:53:45pm", "schedule_type": "STATIC", "schedule_name": "random_6", "is_biased_choice":false,"side_choice": "RIGHT", "trial_number":54,"observed_reward":0,"unobserved_reward":0},{"RT":2197,"time": "2018-08-15 05:53:47pm", "schedule_type": "STATIC", "schedule_name": "random_6", "is_biased_choice":true,"side_choice": "LEFT", "trial_number":55,"observed_reward":0,"unobserved_reward":0},{"RT":2589,"time": "2018-08-15 05:53:50pm", "schedule_type": "STATIC", "schedule_name": "random_6", "is_biased_choice":false,"side_choice": "RIGHT", "trial_number":56,"observed_reward":0,"unobserved_reward":1},{"RT":2446,"time": "2018-08-15 05:53:52pm", "schedule_type": "STATIC", "schedule_name": "random_6", "is_biased_choice":false,"side_choice": "RIGHT", "trial_number":57,"observed_reward":0,"unobserved_reward":0},{"RT":2189,"time": "2018-08-15 05:53:55pm", "schedule_type": "STATIC", "schedule_name": "random_6", "is_biased_choice":true,"side_choice": "LEFT", "trial_number":58,"observed_reward":0,"unobserved_reward":0},{"RT":2214,"time": "2018-08-15 05:53:57pm", "schedule_type": "STATIC", "schedule_name": "random_6", "is_biased_choice":true,"side_choice": "LEFT", "trial_number":59,"observed_reward":0,"unobserved_reward":0},{"RT":2423,"time": "2018-08-15 05:53:59pm", "schedule_type": "STATIC", "schedule_name": "random_6", "is_biased_choice":true,"side_choice": "LEFT", "trial_number":60,"observed_reward":1,"unobserved_reward":1},{"RT":2245,"time": "2018-08-15 05:54:02pm", "schedule_type": "STATIC", "schedule_name": "random_6", "is_biased_choice":false,"side_choice": "RIGHT", "trial_number":61,"observed_reward":0,"unobserved_reward":0},{"RT":2182,"time": "2018-08-15 05:54:04pm", "schedule_type": "STATIC", "schedule_name": "random_6", "is_biased_choice":false,"side_choice": "RIGHT", "trial_number":62,"observed_reward":0,"unobserved_reward":1},{"RT":2112,"time": "2018-08-15 05:54:06pm", "schedule_type": "STATIC", "schedule_name": "random_6", "is_biased_choice":false,"side_choice": "RIGHT", "trial_number":63,"observed_reward":0,"unobserved_reward":0},{"RT":2133,"time": "2018-08-15 05:54:08pm", "schedule_type": "STATIC", "schedule_name": "random_6", "is_biased_choice":true,"side_choice": "LEFT", "trial_number":64,"observed_reward":0,"unobserved_reward":0},{"RT":2145,"time": "2018-08-15 05:54:10pm", "schedule_type": "STATIC", "schedule_name": "random_6", "is_biased_choice":false,"side_choice": "RIGHT", "trial_number":65,"observed_reward":0,"unobserved_reward":0},{"RT":2158,"time": "2018-08-15 05:54:12pm", "schedule_type": "STATIC", "schedule_name": "random_6", "is_biased_choice":false,"side_choice": "RIGHT", "trial_number":66,"observed_reward":0,"unobserved_reward":0},{"RT":2136,"time": "2018-08-15 05:54:14pm", "schedule_type": "STATIC", "schedule_name": "random_6", "is_biased_choice":false,"side_choice": "RIGHT", "trial_number":67,"observed_reward":0,"unobserved_reward":0},{"RT":2236,"time": "2018-08-15 05:54:17pm", "schedule_type": "STATIC", "schedule_name": "random_6", "is_biased_choice":true,"side_choice": "LEFT", "trial_number":68,"observed_reward":0,"unobserved_reward":0},{"RT":2175,"time": "2018-08-15 05:54:19pm", "schedule_type": "STATIC", "schedule_name": "random_6", "is_biased_choice":true,"side_choice": "LEFT", "trial_number":69,"observed_reward":0,"unobserved_reward":0},{"RT":2206,"time": "2018-08-15 05:54:21pm", "schedule_type": "STATIC", "schedule_name": "random_6", "is_biased_choice":true,"side_choice": "LEFT", "trial_number":70,"observed_reward":1,"unobserved_reward":0},{"RT":2229,"time": "2018-08-15 05:54:23pm", "schedule_type": "STATIC", "schedule_name": "random_6", "is_biased_choice":true,"side_choice": "LEFT", "trial_number":71,"observed_reward":0,"unobserved_reward":0},{"RT":2221,"time": "2018-08-15 05:54:26pm", "schedule_type": "STATIC", "schedule_name": "random_6", "is_biased_choice":true,"side_choice": "LEFT", "trial_number":72,"observed_reward":0,"unobserved_reward":1},{"RT":2214,"time": "2018-08-15 05:54:28pm", "schedule_type": "STATIC", "schedule_name": "random_6", "is_biased_choice":false,"side_choice": "RIGHT", "trial_number":73,"observed_reward":0,"unobserved_reward":1},{"RT":2112,"time": "2018-08-15 05:54:30pm", "schedule_type": "STATIC", "schedule_name": "random_6", "is_biased_choice":true,"side_choice": "LEFT", "trial_number":74,"observed_reward":0,"unobserved_reward":0},{"RT":2557,"time": "2018-08-15 05:54:32pm", "schedule_type": "STATIC", "schedule_name": "random_6", "is_biased_choice":false,"side_choice": "RIGHT", "trial_number":75,"observed_reward":0,"unobserved_reward":0},{"RT":2525,"time": "2018-08-15 05:54:35pm", "schedule_type": "STATIC", "schedule_name": "random_6", "is_biased_choice":false,"side_choice": "RIGHT", "trial_number":76,"observed_reward":1,"unobserved_reward":1},{"RT":2228,"time": "2018-08-15 05:54:37pm", "schedule_type": "STATIC", "schedule_name": "random_6", "is_biased_choice":true,"side_choice": "LEFT", "trial_number":77,"observed_reward":0,"unobserved_reward":0},{"RT":2190,"time": "2018-08-15 05:54:39pm", "schedule_type": "STATIC", "schedule_name": "random_6", "is_biased_choice":true,"side_choice": "LEFT", "trial_number":78,"observed_reward":0,"unobserved_reward":0},{"RT":2268,"time": "2018-08-15 05:54:42pm", "schedule_type": "STATIC", "schedule_name": "random_6", "is_biased_choice":true,"side_choice": "LEFT", "trial_number":79,"observed_reward":0,"unobserved_reward":0},{"RT":2166,"time": "2018-08-15 05:54:44pm", "schedule_type": "STATIC", "schedule_name": "random_6", "is_biased_choice":true,"side_choice": "LEFT", "trial_number":80,"observed_reward":1,"unobserved_reward":1},{"RT":2120,"time": "2018-08-15 05:54:46pm", "schedule_type": "STATIC", "schedule_name": "random_6", "is_biased_choice":false,"side_choice": "RIGHT", "trial_number":81,"observed_reward":0,"unobserved_reward":0},{"RT":2276,"time": "2018-08-15 05:54:48pm", "schedule_type": "STATIC", "schedule_name": "random_6", "is_biased_choice":false,"side_choice": "RIGHT", "trial_number":82,"observed_reward":0,"unobserved_reward":0},{"RT":2572,"time": "2018-08-15 05:54:51pm", "schedule_type": "STATIC", "schedule_name": "random_6", "is_biased_choice":false,"side_choice": "RIGHT", "trial_number":83,"observed_reward":1,"unobserved_reward":0},{"RT":2362,"time": "2018-08-15 05:54:53pm", "schedule_type": "STATIC", "schedule_name": "random_6", "is_biased_choice":true,"side_choice": "LEFT", "trial_number":84,"observed_reward":0,"unobserved_reward":1},{"RT":2517,"time": "2018-08-15 05:54:56pm", "schedule_type": "STATIC", "schedule_name": "random_6", "is_biased_choice":false,"side_choice": "RIGHT", "trial_number":85,"observed_reward":0,"unobserved_reward":0},{"RT":2449,"time": "2018-08-15 05:54:58pm", "schedule_type": "STATIC", "schedule_name": "random_6", "is_biased_choice":true,"side_choice": "LEFT", "trial_number":86,"observed_reward":0,"unobserved_reward":0},{"RT":2649,"time": "2018-08-15 05:55:01pm", "schedule_type": "STATIC", "schedule_name": "random_6", "is_biased_choice":false,"side_choice": "RIGHT", "trial_number":87,"observed_reward":0,"unobserved_reward":0},{"RT":2354,"time": "2018-08-15 05:55:03pm", "schedule_type": "STATIC", "schedule_name": "random_6", "is_biased_choice":true,"side_choice": "LEFT", "trial_number":88,"observed_reward":0,"unobserved_reward":0},{"RT":2334,"time": "2018-08-15 05:55:05pm", "schedule_type": "STATIC", "schedule_name": "random_6", "is_biased_choice":false,"side_choice": "RIGHT", "trial_number":89,"observed_reward":1,"unobserved_reward":0},{"RT":2877,"time": "2018-08-15 05:55:08pm", "schedule_type": "STATIC", "schedule_name": "random_6", "is_biased_choice":false,"side_choice": "RIGHT", "trial_number":90,"observed_reward":0,"unobserved_reward":0},{"RT":2206,"time": "2018-08-15 05:55:10pm", "schedule_type": "STATIC", "schedule_name": "random_6", "is_biased_choice":true,"side_choice": "LEFT", "trial_number":91,"observed_reward":0,"unobserved_reward":1},{"RT":2222,"time": "2018-08-15 05:55:13pm", "schedule_type": "STATIC", "schedule_name": "random_6", "is_biased_choice":true,"side_choice": "LEFT", "trial_number":92,"observed_reward":1,"unobserved_reward":0},{"RT":2330,"time": "2018-08-15 05:55:15pm", "schedule_type": "STATIC", "schedule_name": "random_6", "is_biased_choice":true,"side_choice": "LEFT", "trial_number":93,"observed_reward":1,"unobserved_reward":0},{"RT":2292,"time": "2018-08-15 05:55:17pm", "schedule_type": "STATIC", "schedule_name": "random_6", "is_biased_choice":true,"side_choice": "LEFT", "trial_number":94,"observed_reward":0,"unobserved_reward":0},{"RT":2620,"time": "2018-08-15 05:55:20pm", "schedule_type": "STATIC", "schedule_name": "random_6", "is_biased_choice":false,"side_choice": "RIGHT", "trial_number":95,"observed_reward":0,"unobserved_reward":1},{"RT":2353,"time": "2018-08-15 05:55:22pm", "schedule_type": "STATIC", "schedule_name": "random_6", "is_biased_choice":false,"side_choice": "RIGHT", "trial_number":96,"observed_reward":1,"unobserved_reward":0},{"RT":2360,"time": "2018-08-15 05:55:25pm", "schedule_type": "STATIC", "schedule_name": "random_6", "is_biased_choice":false,"side_choice": "RIGHT", "trial_number":97,"observed_reward":1,"unobserved_reward":1},{"RT":2198,"time": "2018-08-15 05:55:27pm", "schedule_type": "STATIC", "schedule_name": "random_6", "is_biased_choice":false,"side_choice": "RIGHT", "trial_number":98,"observed_reward":1,"unobserved_reward":1},{"RT":2269,"time": "2018-08-15 05:55:29pm", "schedule_type": "STATIC", "schedule_name": "random_6", "is_biased_choice":true,"side_choice": "LEFT", "trial_number":99,"observed_reward":1,"unobserved_reward":0},