trial_number, time, schedule_type, schedule_name, is_biased_choice, side_choice, RT, observed_reward, unobserved_reward, biased_reward, unbiased_reward
0,2018-08-23 04:48:27pm, dynamic, 1_6_vs_2_6, true, LEFT, 1160, 1, 0, 1, 0
1,2018-08-23 04:48:30pm, dynamic, 1_6_vs_2_6, true, LEFT, 3023, 0, 0, 0, 0
2,2018-08-23 04:48:32pm, dynamic, 1_6_vs_2_6, true, LEFT, 2337, 1, 0, 1, 0
3,2018-08-23 04:48:35pm, dynamic, 1_6_vs_2_6, true, LEFT, 2712, 0, 0, 0, 0
4,2018-08-23 04:48:37pm, dynamic, 1_6_vs_2_6, true, LEFT, 2336, 1, 0, 1, 0
5,2018-08-23 04:48:40pm, dynamic, 1_6_vs_2_6, false, RIGHT, 2471, 0, 0, 0, 0
6,2018-08-23 04:48:42pm, dynamic, 1_6_vs_2_6, true, LEFT, 2305, 1, 0, 1, 0
7,2018-08-23 04:48:45pm, dynamic, 1_6_vs_2_6, true, LEFT, 2440, 0, 0, 0, 0
8,2018-08-23 04:48:47pm, dynamic, 1_6_vs_2_6, true, LEFT, 2344, 1, 0, 1, 0
9,2018-08-23 04:48:50pm, dynamic, 1_6_vs_2_6, true, LEFT, 2575, 0, 0, 0, 0
10,2018-08-23 04:48:52pm, dynamic, 1_6_vs_2_6, true, LEFT, 2449, 1, 0, 1, 0
11,2018-08-23 04:48:56pm, dynamic, 1_6_vs_2_6, false, RIGHT, 3312, 1, 0, 0, 1
12,2018-08-23 04:48:58pm, dynamic, 1_6_vs_2_6, true, LEFT, 2392, 0, 0, 0, 0
13,2018-08-23 04:49:00pm, dynamic, 1_6_vs_2_6, true, LEFT, 2280, 0, 0, 0, 0
14,2018-08-23 04:49:02pm, dynamic, 1_6_vs_2_6, false, RIGHT, 2263, 0, 0, 0, 0
15,2018-08-23 04:49:05pm, dynamic, 1_6_vs_2_6, false, RIGHT, 2561, 1, 0, 0, 1
16,2018-08-23 04:49:07pm, dynamic, 1_6_vs_2_6, true, LEFT, 2488, 0, 0, 0, 0
17,2018-08-23 04:49:10pm, dynamic, 1_6_vs_2_6, false, RIGHT, 2289, 0, 1, 1, 0
18,2018-08-23 04:49:12pm, dynamic, 1_6_vs_2_6, true, LEFT, 2463, 1, 0, 1, 0
19,2018-08-23 04:49:14pm, dynamic, 1_6_vs_2_6, true, LEFT, 2392, 0, 0, 0, 0
20,2018-08-23 04:49:17pm, dynamic, 1_6_vs_2_6, true, LEFT, 2257, 0, 0, 0, 0
21,2018-08-23 04:49:19pm, dynamic, 1_6_vs_2_6, false, RIGHT, 2767, 0, 0, 0, 0
22,2018-08-23 04:49:22pm, dynamic, 1_6_vs_2_6, true, LEFT, 2352, 0, 0, 0, 0
23,2018-08-23 04:49:24pm, dynamic, 1_6_vs_2_6, true, LEFT, 2344, 0, 0, 0, 0
24,2018-08-23 04:49:26pm, dynamic, 1_6_vs_2_6, true, LEFT, 2320, 0, 0, 0, 0
25,2018-08-23 04:49:29pm, dynamic, 1_6_vs_2_6, true, LEFT, 2352, 0, 0, 0, 0
26,2018-08-23 04:49:32pm, dynamic, 1_6_vs_2_6, false, RIGHT, 2720, 0, 0, 0, 0
27,2018-08-23 04:49:34pm, dynamic, 1_6_vs_2_6, true, LEFT, 2265, 1, 1, 1, 1
28,2018-08-23 04:49:36pm, dynamic, 1_6_vs_2_6, true, LEFT, 2552, 0, 0, 0, 0
29,2018-08-23 04:49:39pm, dynamic, 1_6_vs_2_6, true, LEFT, 2470, 0, 0, 0, 0
30,2018-08-23 04:49:41pm, dynamic, 1_6_vs_2_6, false, RIGHT, 2320, 0, 1, 1, 0
31,2018-08-23 04:49:43pm, dynamic, 1_6_vs_2_6, true, LEFT, 2288, 1, 1, 1, 1
32,2018-08-23 04:49:46pm, dynamic, 1_6_vs_2_6, true, LEFT, 2338, 1, 1, 1, 1
33,2018-08-23 04:49:48pm, dynamic, 1_6_vs_2_6, true, LEFT, 2384, 0, 0, 0, 0
34,2018-08-23 04:49:51pm, dynamic, 1_6_vs_2_6, false, RIGHT, 2367, 0, 0, 0, 0
35,2018-08-23 04:49:53pm, dynamic, 1_6_vs_2_6, true, LEFT, 2260, 0, 0, 0, 0
36,2018-08-23 04:49:55pm, dynamic, 1_6_vs_2_6, true, LEFT, 2339, 0, 0, 0, 0
37,2018-08-23 04:49:57pm, dynamic, 1_6_vs_2_6, false, RIGHT, 2242, 0, 0, 0, 0
38,2018-08-23 04:50:00pm, dynamic, 1_6_vs_2_6, true, LEFT, 2350, 1, 0, 1, 0
39,2018-08-23 04:50:02pm, dynamic, 1_6_vs_2_6, true, LEFT, 2466, 1, 0, 1, 0
40,2018-08-23 04:50:05pm, dynamic, 1_6_vs_2_6, true, LEFT, 2591, 0, 0, 0, 0
41,2018-08-23 04:50:07pm, dynamic, 1_6_vs_2_6, true, LEFT, 2488, 0, 0, 0, 0
42,2018-08-23 04:50:10pm, dynamic, 1_6_vs_2_6, false, RIGHT, 2313, 0, 0, 0, 0
43,2018-08-23 04:50:12pm, dynamic, 1_6_vs_2_6, true, LEFT, 2558, 0, 0, 0, 0
44,2018-08-23 04:50:14pm, dynamic, 1_6_vs_2_6, true, LEFT, 2233, 1, 0, 1, 0
45,2018-08-23 04:50:17pm, dynamic, 1_6_vs_2_6, true, LEFT, 2632, 0, 0, 0, 0
46,2018-08-23 04:50:19pm, dynamic, 1_6_vs_2_6, false, RIGHT, 2393, 0, 0, 0, 0
47,2018-08-23 04:50:22pm, dynamic, 1_6_vs_2_6, false, RIGHT, 2263, 0, 0, 0, 0
48,2018-08-23 04:50:24pm, dynamic, 1_6_vs_2_6, true, LEFT, 2256, 0, 1, 0, 1
49,2018-08-23 04:50:26pm, dynamic, 1_6_vs_2_6, true, LEFT, 2329, 1, 0, 1, 0
50,2018-08-23 04:50:29pm, dynamic, 1_6_vs_2_6, true, LEFT, 2560, 0, 0, 0, 0
51,2018-08-23 04:50:31pm, dynamic, 1_6_vs_2_6, false, RIGHT, 2255, 0, 0, 0, 0
52,2018-08-23 04:50:33pm, dynamic, 1_6_vs_2_6, true, LEFT, 2265, 1, 0, 1, 0
53,2018-08-23 04:50:36pm, dynamic, 1_6_vs_2_6, true, LEFT, 3128, 0, 0, 0, 0
54,2018-08-23 04:50:39pm, dynamic, 1_6_vs_2_6, false, RIGHT, 2800, 1, 1, 1, 1
55,2018-08-23 04:50:42pm, dynamic, 1_6_vs_2_6, true, LEFT, 2424, 0, 0, 0, 0
56,2018-08-23 04:50:44pm, dynamic, 1_6_vs_2_6, false, RIGHT, 2688, 0, 0, 0, 0
57,2018-08-23 04:50:47pm, dynamic, 1_6_vs_2_6, true, LEFT, 2272, 0, 1, 0, 1
58,2018-08-23 04:50:49pm, dynamic, 1_6_vs_2_6, false, RIGHT, 2423, 0, 1, 1, 0
59,2018-08-23 04:50:51pm, dynamic, 1_6_vs_2_6, true, LEFT, 2216, 0, 0, 0, 0
60,2018-08-23 04:50:54pm, dynamic, 1_6_vs_2_6, true, LEFT, 2377, 0, 0, 0, 0
61,2018-08-23 04:50:56pm, dynamic, 1_6_vs_2_6, false, RIGHT, 2544, 0, 0, 0, 0
62,2018-08-23 04:50:59pm, dynamic, 1_6_vs_2_6, true, LEFT, 2400, 0, 0, 0, 0
63,2018-08-23 04:51:01pm, dynamic, 1_6_vs_2_6, true, LEFT, 2328, 0, 1, 0, 1
64,2018-08-23 04:51:03pm, dynamic, 1_6_vs_2_6, false, RIGHT, 2296, 1, 0, 0, 1
65,2018-08-23 04:51:06pm, dynamic, 1_6_vs_2_6, true, LEFT, 2440, 1, 1, 1, 1
66,2018-08-23 04:51:08pm, dynamic, 1_6_vs_2_6, true, LEFT, 2343, 0, 0, 0, 0
67,2018-08-23 04:51:10pm, dynamic, 1_6_vs_2_6, false, RIGHT, 2312, 0, 0, 0, 0
68,2018-08-23 04:51:13pm, dynamic, 1_6_vs_2_6, true, LEFT, 2272, 1, 0, 1, 0
69,2018-08-23 04:51:15pm, dynamic, 1_6_vs_2_6, true, LEFT, 2618, 0, 0, 0, 0
70,2018-08-23 04:51:17pm, dynamic, 1_6_vs_2_6, true, LEFT, 2271, 0, 0, 0, 0
71,2018-08-23 04:51:20pm, dynamic, 1_6_vs_2_6, false, RIGHT, 2289, 0, 1, 1, 0
72,2018-08-23 04:51:22pm, dynamic, 1_6_vs_2_6, true, LEFT, 2414, 1, 0, 1, 0
73,2018-08-23 04:51:25pm, dynamic, 1_6_vs_2_6, true, LEFT, 2711, 0, 1, 0, 1
74,2018-08-23 04:51:27pm, dynamic, 1_6_vs_2_6, false, RIGHT, 2224, 0, 1, 1, 0
75,2018-08-23 04:51:29pm, dynamic, 1_6_vs_2_6, true, LEFT, 2274, 0, 0, 0, 0
76,2018-08-23 04:51:32pm, dynamic, 1_6_vs_2_6, true, LEFT, 2320, 0, 0, 0, 0
77,2018-08-23 04:51:34pm, dynamic, 1_6_vs_2_6, false, RIGHT, 2248, 0, 0, 0, 0
78,2018-08-23 04:51:37pm, dynamic, 1_6_vs_2_6, true, LEFT, 2871, 0, 0, 0, 0
79,2018-08-23 04:51:39pm, dynamic, 1_6_vs_2_6, true, LEFT, 2280, 0, 0, 0, 0
80,2018-08-23 04:51:41pm, dynamic, 1_6_vs_2_6, false, RIGHT, 2239, 0, 1, 1, 0
81,2018-08-23 04:51:44pm, dynamic, 1_6_vs_2_6, true, LEFT, 3097, 0, 0, 0, 0
82,2018-08-23 04:51:47pm, dynamic, 1_6_vs_2_6, true, LEFT, 2465, 0, 1, 0, 1
83,2018-08-23 04:51:49pm, dynamic, 1_6_vs_2_6, false, RIGHT, 2279, 1, 0, 0, 1
84,2018-08-23 04:51:53pm, dynamic, 1_6_vs_2_6, true, LEFT, 3600, 0, 0, 0, 0
85,2018-08-23 04:51:57pm, dynamic, 1_6_vs_2_6, true, LEFT, 4432, 0, 0, 0, 0
86,2018-08-23 04:52:01pm, dynamic, 1_6_vs_2_6, true, LEFT, 3431, 0, 0, 0, 0
87,2018-08-23 04:52:03pm, dynamic, 1_6_vs_2_6, false, RIGHT, 2665, 1, 0, 0, 1
88,2018-08-23 04:52:06pm, dynamic, 1_6_vs_2_6, true, LEFT, 2738, 0, 0, 0, 0
89,2018-08-23 04:52:08pm, dynamic, 1_6_vs_2_6, false, RIGHT, 2287, 0, 0, 0, 0
90,2018-08-23 04:52:11pm, dynamic, 1_6_vs_2_6, true, LEFT, 2296, 0, 1, 0, 1
91,2018-08-23 04:52:14pm, dynamic, 1_6_vs_2_6, false, RIGHT, 2863, 1, 0, 0, 1
92,2018-08-23 04:52:16pm, dynamic, 1_6_vs_2_6, true, LEFT, 2335, 0, 1, 0, 1
93,2018-08-23 04:52:19pm, dynamic, 1_6_vs_2_6, true, LEFT, 2745, 0, 1, 0, 1
94,2018-08-23 04:52:21pm, dynamic, 1_6_vs_2_6, false, RIGHT, 2449, 1, 0, 0, 1
95,2018-08-23 04:52:24pm, dynamic, 1_6_vs_2_6, true, LEFT, 2520, 0, 1, 0, 1
96,2018-08-23 04:52:26pm, dynamic, 1_6_vs_2_6, false, RIGHT, 2423, 1, 0, 0, 1
97,2018-08-23 04:52:30pm, dynamic, 1_6_vs_2_6, true, LEFT, 3297, 0, 1, 0, 1
98,2018-08-23 04:52:32pm, dynamic, 1_6_vs_2_6, false, RIGHT, 2296, 1, 0, 0, 1
99,2018-08-23 04:52:35pm, dynamic, 1_6_vs_2_6, true, LEFT, 3015, 0, 1, 0, 1
