trial_number, time, schedule_type, schedule_name, is_biased_choice, side_choice, RT, observed_reward, unobserved_reward, biased_reward, unbiased_reward
0,2018-08-23 04:54:13pm, dynamic, 1_6_vs_2_6, true, LEFT, 14033, 0, 0, 0, 0
1,2018-08-23 04:54:16pm, dynamic, 1_6_vs_2_6, false, RIGHT, 3298, 0, 0, 0, 0
2,2018-08-23 04:54:19pm, dynamic, 1_6_vs_2_6, true, LEFT, 2620, 1, 0, 1, 0
3,2018-08-23 04:54:22pm, dynamic, 1_6_vs_2_6, true, LEFT, 3365, 0, 0, 0, 0
4,2018-08-23 04:54:25pm, dynamic, 1_6_vs_2_6, true, LEFT, 2677, 0, 0, 0, 0
5,2018-08-23 04:54:29pm, dynamic, 1_6_vs_2_6, true, LEFT, 3450, 0, 0, 0, 0
6,2018-08-23 04:54:31pm, dynamic, 1_6_vs_2_6, false, RIGHT, 2584, 1, 0, 0, 1
7,2018-08-23 04:54:34pm, dynamic, 1_6_vs_2_6, false, RIGHT, 2716, 0, 0, 0, 0
8,2018-08-23 04:54:37pm, dynamic, 1_6_vs_2_6, false, RIGHT, 3076, 1, 1, 1, 1
9,2018-08-23 04:54:40pm, dynamic, 1_6_vs_2_6, true, LEFT, 2992, 0, 0, 0, 0
10,2018-08-23 04:54:42pm, dynamic, 1_6_vs_2_6, false, RIGHT, 2304, 0, 1, 1, 0
11,2018-08-23 04:54:45pm, dynamic, 1_6_vs_2_6, false, RIGHT, 2598, 1, 1, 1, 1
12,2018-08-23 04:54:48pm, dynamic, 1_6_vs_2_6, true, LEFT, 3194, 1, 1, 1, 1
13,2018-08-23 04:54:50pm, dynamic, 1_6_vs_2_6, false, RIGHT, 2521, 0, 0, 0, 0
14,2018-08-23 04:54:53pm, dynamic, 1_6_vs_2_6, true, LEFT, 2734, 0, 0, 0, 0
15,2018-08-23 04:54:55pm, dynamic, 1_6_vs_2_6, false, RIGHT, 2319, 0, 1, 1, 0
16,2018-08-23 04:54:59pm, dynamic, 1_6_vs_2_6, false, RIGHT, 3618, 0, 1, 1, 0
17,2018-08-23 04:55:01pm, dynamic, 1_6_vs_2_6, true, LEFT, 2344, 0, 0, 0, 0
18,2018-08-23 04:55:04pm, dynamic, 1_6_vs_2_6, true, LEFT, 2358, 1, 0, 1, 0
19,2018-08-23 04:55:06pm, dynamic, 1_6_vs_2_6, true, LEFT, 2323, 0, 0, 0, 0
20,2018-08-23 04:55:09pm, dynamic, 1_6_vs_2_6, true, LEFT, 2596, 1, 0, 1, 0
21,2018-08-23 04:55:11pm, dynamic, 1_6_vs_2_6, true, LEFT, 2944, 0, 0, 0, 0
22,2018-08-23 04:55:14pm, dynamic, 1_6_vs_2_6, false, RIGHT, 2682, 0, 1, 1, 0
23,2018-08-23 04:55:17pm, dynamic, 1_6_vs_2_6, false, RIGHT, 2332, 0, 0, 0, 0
24,2018-08-23 04:55:19pm, dynamic, 1_6_vs_2_6, true, LEFT, 2551, 1, 1, 1, 1
25,2018-08-23 04:55:23pm, dynamic, 1_6_vs_2_6, true, LEFT, 3835, 0, 0, 0, 0
26,2018-08-23 04:55:25pm, dynamic, 1_6_vs_2_6, true, LEFT, 2560, 0, 0, 0, 0
27,2018-08-23 04:55:28pm, dynamic, 1_6_vs_2_6, false, RIGHT, 2601, 1, 1, 1, 1
28,2018-08-23 04:55:31pm, dynamic, 1_6_vs_2_6, false, RIGHT, 2711, 0, 1, 1, 0
29,2018-08-23 04:55:34pm, dynamic, 1_6_vs_2_6, true, LEFT, 2545, 0, 0, 0, 0
30,2018-08-23 04:55:36pm, dynamic, 1_6_vs_2_6, false, RIGHT, 2504, 0, 1, 1, 0
31,2018-08-23 04:55:41pm, dynamic, 1_6_vs_2_6, false, RIGHT, 4376, 0, 0, 0, 0
32,2018-08-23 04:55:49pm, dynamic, 1_6_vs_2_6, false, RIGHT, 8552, 1, 0, 0, 1
33,2018-08-23 04:55:51pm, dynamic, 1_6_vs_2_6, false, RIGHT, 2307, 1, 1, 1, 1
34,2018-08-23 04:55:55pm, dynamic, 1_6_vs_2_6, false, RIGHT, 3560, 0, 0, 0, 0
35,2018-08-23 04:55:58pm, dynamic, 1_6_vs_2_6, true, LEFT, 2663, 0, 0, 0, 0
36,2018-08-23 04:56:00pm, dynamic, 1_6_vs_2_6, false, RIGHT, 2646, 0, 0, 0, 0
37,2018-08-23 04:56:03pm, dynamic, 1_6_vs_2_6, true, LEFT, 2471, 0, 1, 0, 1
38,2018-08-23 04:56:05pm, dynamic, 1_6_vs_2_6, false, RIGHT, 2679, 0, 0, 0, 0
39,2018-08-23 04:56:08pm, dynamic, 1_6_vs_2_6, false, RIGHT, 2298, 1, 0, 0, 1
40,2018-08-23 04:56:10pm, dynamic, 1_6_vs_2_6, false, RIGHT, 2324, 0, 1, 1, 0
41,2018-08-23 04:56:12pm, dynamic, 1_6_vs_2_6, true, LEFT, 2251, 0, 0, 0, 0
42,2018-08-23 04:56:20pm, dynamic, 1_6_vs_2_6, false, RIGHT, 8193, 0, 1, 1, 0
43,2018-08-23 04:56:23pm, dynamic, 1_6_vs_2_6, true, LEFT, 2393, 0, 0, 0, 0
44,2018-08-23 04:56:25pm, dynamic, 1_6_vs_2_6, false, RIGHT, 2429, 0, 0, 0, 0
45,2018-08-23 04:56:28pm, dynamic, 1_6_vs_2_6, false, RIGHT, 3217, 0, 0, 0, 0
46,2018-08-23 04:56:31pm, dynamic, 1_6_vs_2_6, false, RIGHT, 2337, 0, 1, 1, 0
47,2018-08-23 04:56:34pm, dynamic, 1_6_vs_2_6, false, RIGHT, 2995, 0, 1, 1, 0
48,2018-08-23 04:56:36pm, dynamic, 1_6_vs_2_6, false, RIGHT, 2180, 0, 1, 1, 0
49,2018-08-23 04:56:38pm, dynamic, 1_6_vs_2_6, true, LEFT, 2561, 1, 0, 1, 0
50,2018-08-23 04:56:41pm, dynamic, 1_6_vs_2_6, true, LEFT, 2544, 0, 0, 0, 0
51,2018-08-23 04:56:44pm, dynamic, 1_6_vs_2_6, false, RIGHT, 2475, 0, 1, 1, 0
52,2018-08-23 04:56:46pm, dynamic, 1_6_vs_2_6, true, LEFT, 2339, 0, 1, 0, 1
53,2018-08-23 04:56:48pm, dynamic, 1_6_vs_2_6, false, RIGHT, 2482, 0, 0, 0, 0
54,2018-08-23 04:56:51pm, dynamic, 1_6_vs_2_6, true, LEFT, 2511, 1, 0, 1, 0
55,2018-08-23 04:56:53pm, dynamic, 1_6_vs_2_6, true, LEFT, 2542, 1, 0, 1, 0
56,2018-08-23 04:56:55pm, dynamic, 1_6_vs_2_6, true, LEFT, 2287, 0, 0, 0, 0
57,2018-08-23 04:56:59pm, dynamic, 1_6_vs_2_6, false, RIGHT, 2881, 0, 0, 0, 0
58,2018-08-23 04:57:04pm, dynamic, 1_6_vs_2_6, true, LEFT, 5559, 0, 0, 0, 0
59,2018-08-23 04:57:07pm, dynamic, 1_6_vs_2_6, false, RIGHT, 2926, 0, 0, 0, 0
60,2018-08-23 04:57:09pm, dynamic, 1_6_vs_2_6, true, LEFT, 2110, 0, 0, 0, 0
61,2018-08-23 04:57:11pm, dynamic, 1_6_vs_2_6, false, RIGHT, 2506, 1, 0, 0, 1
62,2018-08-23 04:57:14pm, dynamic, 1_6_vs_2_6, false, RIGHT, 2104, 0, 0, 0, 0
63,2018-08-23 04:57:16pm, dynamic, 1_6_vs_2_6, false, RIGHT, 2518, 0, 0, 0, 0
64,2018-08-23 04:57:18pm, dynamic, 1_6_vs_2_6, false, RIGHT, 2206, 0, 0, 0, 0
65,2018-08-23 04:57:21pm, dynamic, 1_6_vs_2_6, true, LEFT, 2478, 0, 0, 0, 0
66,2018-08-23 04:57:23pm, dynamic, 1_6_vs_2_6, false, RIGHT, 2314, 0, 1, 1, 0
67,2018-08-23 04:57:25pm, dynamic, 1_6_vs_2_6, false, RIGHT, 2143, 0, 0, 0, 0
68,2018-08-23 04:57:28pm, dynamic, 1_6_vs_2_6, true, LEFT, 2493, 0, 0, 0, 0
69,2018-08-23 04:57:30pm, dynamic, 1_6_vs_2_6, true, LEFT, 2144, 0, 0, 0, 0
70,2018-08-23 04:57:32pm, dynamic, 1_6_vs_2_6, false, RIGHT, 2421, 0, 0, 0, 0
71,2018-08-23 04:57:35pm, dynamic, 1_6_vs_2_6, false, RIGHT, 2739, 0, 0, 0, 0
72,2018-08-23 04:57:38pm, dynamic, 1_6_vs_2_6, true, LEFT, 2599, 0, 1, 0, 1
73,2018-08-23 04:57:40pm, dynamic, 1_6_vs_2_6, false, RIGHT, 2387, 0, 0, 0, 0
74,2018-08-23 04:57:43pm, dynamic, 1_6_vs_2_6, true, LEFT, 3157, 0, 0, 0, 0
75,2018-08-23 04:57:46pm, dynamic, 1_6_vs_2_6, true, LEFT, 2671, 0, 0, 0, 0
76,2018-08-23 04:57:48pm, dynamic, 1_6_vs_2_6, false, RIGHT, 2423, 0, 0, 0, 0
77,2018-08-23 04:57:50pm, dynamic, 1_6_vs_2_6, false, RIGHT, 2269, 0, 0, 0, 0
78,2018-08-23 04:57:57pm, dynamic, 1_6_vs_2_6, true, LEFT, 4525, 0, 0, 0, 0
79,2018-08-23 04:57:58pm, dynamic, 1_6_vs_2_6, true, LEFT, 3518, 0, 0, 0, 0
80,2018-08-23 04:58:06pm, dynamic, 1_6_vs_2_6, false, RIGHT, 6736, 0, 0, 0, 0
81,2018-08-23 04:58:08pm, dynamic, 1_6_vs_2_6, true, LEFT, 2611, 0, 0, 0, 0
82,2018-08-23 04:58:10pm, dynamic, 1_6_vs_2_6, true, LEFT, 2254, 0, 0, 0, 0
83,2018-08-23 04:58:13pm, dynamic, 1_6_vs_2_6, false, RIGHT, 2192, 0, 0, 0, 0
84,2018-08-23 04:58:14pm, dynamic, 1_6_vs_2_6, false, RIGHT, 1946, 0, 0, 0, 0
85,2018-08-23 04:58:17pm, dynamic, 1_6_vs_2_6, false, RIGHT, 2212, 0, 0, 0, 0
86,2018-08-23 04:58:19pm, dynamic, 1_6_vs_2_6, false, RIGHT, 2090, 0, 0, 0, 0
87,2018-08-23 04:58:21pm, dynamic, 1_6_vs_2_6, true, LEFT, 2194, 0, 1, 0, 1
88,2018-08-23 04:58:23pm, dynamic, 1_6_vs_2_6, false, RIGHT, 2188, 0, 0, 0, 0
89,2018-08-23 04:58:26pm, dynamic, 1_6_vs_2_6, false, RIGHT, 2799, 1, 0, 0, 1
90,2018-08-23 04:58:29pm, dynamic, 1_6_vs_2_6, false, RIGHT, 2465, 1, 0, 0, 1
91,2018-08-23 04:58:30pm, dynamic, 1_6_vs_2_6, false, RIGHT, 2239, 1, 0, 0, 1
92,2018-08-23 04:58:33pm, dynamic, 1_6_vs_2_6, false, RIGHT, 2261, 1, 0, 0, 1
93,2018-08-23 04:58:35pm, dynamic, 1_6_vs_2_6, false, RIGHT, 2304, 1, 0, 0, 1
94,2018-08-23 04:58:38pm, dynamic, 1_6_vs_2_6, false, RIGHT, 2259, 1, 0, 0, 1
95,2018-08-23 04:58:39pm, dynamic, 1_6_vs_2_6, false, RIGHT, 2138, 1, 0, 0, 1
96,2018-08-23 04:58:42pm, dynamic, 1_6_vs_2_6, false, RIGHT, 2536, 1, 0, 0, 1
97,2018-08-23 04:58:44pm, dynamic, 1_6_vs_2_6, false, RIGHT, 2234, 1, 0, 0, 1
98,2018-08-23 04:58:46pm, dynamic, 1_6_vs_2_6, false, RIGHT, 2202, 1, 0, 0, 1
