trial_number, time, schedule_type, schedule_name, is_biased_choice, side_choice, RT, observed_reward, unobserved_reward, biased_reward, unbiased_reward
0,2018-08-23 04:47:06pm, dynamic, 1_6_vs_2_6, false, LEFT, 6555, 1, 0, 0, 1
1,2018-08-23 04:47:09pm, dynamic, 1_6_vs_2_6, false, LEFT, 3361, 0, 0, 0, 0
2,2018-08-23 04:47:12pm, dynamic, 1_6_vs_2_6, false, LEFT, 2976, 0, 1, 1, 0
3,2018-08-23 04:47:15pm, dynamic, 1_6_vs_2_6, true, RIGHT, 2721, 1, 0, 1, 0
4,2018-08-23 04:47:18pm, dynamic, 1_6_vs_2_6, false, LEFT, 2886, 0, 1, 1, 0
5,2018-08-23 04:47:21pm, dynamic, 1_6_vs_2_6, true, RIGHT, 2992, 0, 0, 0, 0
6,2018-08-23 04:47:24pm, dynamic, 1_6_vs_2_6, true, RIGHT, 2672, 0, 0, 0, 0
7,2018-08-23 04:47:26pm, dynamic, 1_6_vs_2_6, false, LEFT, 2768, 0, 0, 0, 0
8,2018-08-23 04:47:29pm, dynamic, 1_6_vs_2_6, true, RIGHT, 2647, 1, 0, 1, 0
9,2018-08-23 04:47:32pm, dynamic, 1_6_vs_2_6, false, LEFT, 2906, 0, 1, 1, 0
10,2018-08-23 04:47:35pm, dynamic, 1_6_vs_2_6, true, RIGHT, 2728, 0, 0, 0, 0
11,2018-08-23 04:47:38pm, dynamic, 1_6_vs_2_6, false, LEFT, 3047, 0, 1, 1, 0
12,2018-08-23 04:47:40pm, dynamic, 1_6_vs_2_6, true, RIGHT, 2634, 1, 0, 1, 0
13,2018-08-23 04:47:43pm, dynamic, 1_6_vs_2_6, true, RIGHT, 2623, 1, 1, 1, 1
14,2018-08-23 04:47:46pm, dynamic, 1_6_vs_2_6, true, RIGHT, 3065, 1, 0, 1, 0
15,2018-08-23 04:47:49pm, dynamic, 1_6_vs_2_6, true, RIGHT, 2664, 1, 0, 1, 0
16,2018-08-23 04:47:51pm, dynamic, 1_6_vs_2_6, true, RIGHT, 2631, 1, 1, 1, 1
17,2018-08-23 04:47:54pm, dynamic, 1_6_vs_2_6, true, RIGHT, 2679, 0, 0, 0, 0
18,2018-08-23 04:47:57pm, dynamic, 1_6_vs_2_6, false, LEFT, 2873, 0, 0, 0, 0
19,2018-08-23 04:47:59pm, dynamic, 1_6_vs_2_6, true, RIGHT, 2535, 0, 0, 0, 0
20,2018-08-23 04:48:02pm, dynamic, 1_6_vs_2_6, true, RIGHT, 2601, 0, 0, 0, 0
21,2018-08-23 04:48:05pm, dynamic, 1_6_vs_2_6, true, RIGHT, 2816, 0, 0, 0, 0
22,2018-08-23 04:48:08pm, dynamic, 1_6_vs_2_6, true, RIGHT, 2839, 0, 1, 0, 1
23,2018-08-23 04:48:10pm, dynamic, 1_6_vs_2_6, true, RIGHT, 2720, 0, 1, 0, 1
24,2018-08-23 04:48:13pm, dynamic, 1_6_vs_2_6, false, LEFT, 2513, 0, 0, 0, 0
25,2018-08-23 04:48:16pm, dynamic, 1_6_vs_2_6, false, LEFT, 2599, 0, 0, 0, 0
26,2018-08-23 04:48:18pm, dynamic, 1_6_vs_2_6, true, RIGHT, 2762, 0, 0, 0, 0
27,2018-08-23 04:48:22pm, dynamic, 1_6_vs_2_6, true, RIGHT, 3439, 0, 1, 0, 1
28,2018-08-23 04:48:26pm, dynamic, 1_6_vs_2_6, true, RIGHT, 4560, 0, 0, 0, 0
29,2018-08-23 04:48:32pm, dynamic, 1_6_vs_2_6, true, RIGHT, 5199, 0, 0, 0, 0
30,2018-08-23 04:48:34pm, dynamic, 1_6_vs_2_6, true, RIGHT, 2505, 0, 0, 0, 0
31,2018-08-23 04:48:36pm, dynamic, 1_6_vs_2_6, true, RIGHT, 2431, 1, 0, 1, 0
32,2018-08-23 04:48:39pm, dynamic, 1_6_vs_2_6, true, RIGHT, 2552, 0, 0, 0, 0
33,2018-08-23 04:48:42pm, dynamic, 1_6_vs_2_6, true, RIGHT, 2593, 0, 0, 0, 0
34,2018-08-23 04:48:44pm, dynamic, 1_6_vs_2_6, true, RIGHT, 2553, 1, 0, 1, 0
35,2018-08-23 04:48:47pm, dynamic, 1_6_vs_2_6, true, RIGHT, 2535, 0, 0, 0, 0
36,2018-08-23 04:48:50pm, dynamic, 1_6_vs_2_6, true, RIGHT, 2864, 0, 1, 0, 1
37,2018-08-23 04:48:52pm, dynamic, 1_6_vs_2_6, true, RIGHT, 2897, 0, 1, 0, 1
38,2018-08-23 04:48:56pm, dynamic, 1_6_vs_2_6, true, RIGHT, 3191, 0, 0, 0, 0
39,2018-08-23 04:48:59pm, dynamic, 1_6_vs_2_6, true, RIGHT, 2863, 1, 0, 1, 0
40,2018-08-23 04:49:01pm, dynamic, 1_6_vs_2_6, true, RIGHT, 2968, 0, 0, 0, 0
41,2018-08-23 04:49:04pm, dynamic, 1_6_vs_2_6, true, RIGHT, 2888, 0, 1, 0, 1
42,2018-08-23 04:49:07pm, dynamic, 1_6_vs_2_6, true, RIGHT, 3009, 1, 0, 1, 0
43,2018-08-23 04:49:10pm, dynamic, 1_6_vs_2_6, true, RIGHT, 2984, 0, 0, 0, 0
44,2018-08-23 04:49:13pm, dynamic, 1_6_vs_2_6, true, RIGHT, 2711, 0, 0, 0, 0
45,2018-08-23 04:49:16pm, dynamic, 1_6_vs_2_6, true, RIGHT, 2712, 1, 0, 1, 0
46,2018-08-23 04:49:19pm, dynamic, 1_6_vs_2_6, true, RIGHT, 2785, 0, 0, 0, 0
47,2018-08-23 04:49:21pm, dynamic, 1_6_vs_2_6, true, RIGHT, 2776, 0, 1, 0, 1
48,2018-08-23 04:49:24pm, dynamic, 1_6_vs_2_6, true, RIGHT, 2511, 1, 0, 1, 0
49,2018-08-23 04:49:26pm, dynamic, 1_6_vs_2_6, true, RIGHT, 2370, 1, 1, 1, 1
50,2018-08-23 04:49:29pm, dynamic, 1_6_vs_2_6, true, RIGHT, 2503, 1, 0, 1, 0
51,2018-08-23 04:49:31pm, dynamic, 1_6_vs_2_6, true, RIGHT, 2415, 0, 0, 0, 0
52,2018-08-23 04:49:34pm, dynamic, 1_6_vs_2_6, true, RIGHT, 2458, 0, 0, 0, 0
53,2018-08-23 04:49:36pm, dynamic, 1_6_vs_2_6, true, RIGHT, 2414, 0, 1, 0, 1
54,2018-08-23 04:49:39pm, dynamic, 1_6_vs_2_6, true, RIGHT, 2521, 0, 0, 0, 0
55,2018-08-23 04:49:41pm, dynamic, 1_6_vs_2_6, true, RIGHT, 2543, 0, 0, 0, 0
56,2018-08-23 04:49:44pm, dynamic, 1_6_vs_2_6, true, RIGHT, 2569, 1, 0, 1, 0
57,2018-08-23 04:49:46pm, dynamic, 1_6_vs_2_6, true, RIGHT, 2352, 0, 0, 0, 0
58,2018-08-23 04:49:48pm, dynamic, 1_6_vs_2_6, true, RIGHT, 2425, 0, 0, 0, 0
59,2018-08-23 04:49:51pm, dynamic, 1_6_vs_2_6, true, RIGHT, 2519, 1, 0, 1, 0
60,2018-08-23 04:49:53pm, dynamic, 1_6_vs_2_6, true, RIGHT, 2519, 1, 0, 1, 0
61,2018-08-23 04:49:56pm, dynamic, 1_6_vs_2_6, true, RIGHT, 2576, 0, 1, 0, 1
62,2018-08-23 04:49:59pm, dynamic, 1_6_vs_2_6, true, RIGHT, 2617, 0, 0, 0, 0
63,2018-08-23 04:50:02pm, dynamic, 1_6_vs_2_6, true, RIGHT, 3264, 0, 0, 0, 0
64,2018-08-23 04:50:05pm, dynamic, 1_6_vs_2_6, true, RIGHT, 2775, 1, 0, 1, 0
65,2018-08-23 04:50:07pm, dynamic, 1_6_vs_2_6, true, RIGHT, 2616, 0, 0, 0, 0
66,2018-08-23 04:50:10pm, dynamic, 1_6_vs_2_6, true, RIGHT, 2721, 0, 0, 0, 0
67,2018-08-23 04:50:12pm, dynamic, 1_6_vs_2_6, true, RIGHT, 2455, 0, 0, 0, 0
68,2018-08-23 04:50:15pm, dynamic, 1_6_vs_2_6, true, RIGHT, 2433, 0, 0, 0, 0
69,2018-08-23 04:50:17pm, dynamic, 1_6_vs_2_6, true, RIGHT, 2463, 0, 0, 0, 0
70,2018-08-23 04:50:20pm, dynamic, 1_6_vs_2_6, true, RIGHT, 2936, 0, 0, 0, 0
71,2018-08-23 04:50:23pm, dynamic, 1_6_vs_2_6, true, RIGHT, 2632, 0, 0, 0, 0
72,2018-08-23 04:50:26pm, dynamic, 1_6_vs_2_6, true, RIGHT, 2577, 1, 0, 1, 0
73,2018-08-23 04:50:28pm, dynamic, 1_6_vs_2_6, true, RIGHT, 2392, 1, 1, 1, 1
74,2018-08-23 04:50:30pm, dynamic, 1_6_vs_2_6, true, RIGHT, 2415, 0, 0, 0, 0
75,2018-08-23 04:50:33pm, dynamic, 1_6_vs_2_6, true, RIGHT, 2480, 0, 0, 0, 0
76,2018-08-23 04:50:35pm, dynamic, 1_6_vs_2_6, true, RIGHT, 2393, 0, 0, 0, 0
77,2018-08-23 04:50:38pm, dynamic, 1_6_vs_2_6, true, RIGHT, 2449, 0, 0, 0, 0
78,2018-08-23 04:50:41pm, dynamic, 1_6_vs_2_6, true, RIGHT, 2911, 0, 0, 0, 0
79,2018-08-23 04:50:43pm, dynamic, 1_6_vs_2_6, true, RIGHT, 2832, 0, 0, 0, 0
80,2018-08-23 04:50:46pm, dynamic, 1_6_vs_2_6, true, RIGHT, 2583, 0, 0, 0, 0
81,2018-08-23 04:50:49pm, dynamic, 1_6_vs_2_6, true, RIGHT, 2617, 0, 0, 0, 0
82,2018-08-23 04:50:51pm, dynamic, 1_6_vs_2_6, true, RIGHT, 2408, 0, 0, 0, 0
83,2018-08-23 04:50:54pm, dynamic, 1_6_vs_2_6, true, RIGHT, 2655, 0, 0, 0, 0
84,2018-08-23 04:50:56pm, dynamic, 1_6_vs_2_6, true, RIGHT, 2369, 0, 0, 0, 0
85,2018-08-23 04:50:58pm, dynamic, 1_6_vs_2_6, true, RIGHT, 2401, 0, 1, 0, 1
86,2018-08-23 04:51:01pm, dynamic, 1_6_vs_2_6, true, RIGHT, 2535, 0, 0, 0, 0
87,2018-08-23 04:51:03pm, dynamic, 1_6_vs_2_6, true, RIGHT, 2422, 0, 0, 0, 0
88,2018-08-23 04:51:06pm, dynamic, 1_6_vs_2_6, true, RIGHT, 2427, 0, 0, 0, 0
89,2018-08-23 04:51:08pm, dynamic, 1_6_vs_2_6, true, RIGHT, 2584, 0, 0, 0, 0
90,2018-08-23 04:51:11pm, dynamic, 1_6_vs_2_6, true, RIGHT, 2367, 0, 1, 0, 1
91,2018-08-23 04:51:13pm, dynamic, 1_6_vs_2_6, true, RIGHT, 2576, 0, 1, 0, 1
92,2018-08-23 04:51:16pm, dynamic, 1_6_vs_2_6, true, RIGHT, 2792, 0, 1, 0, 1
93,2018-08-23 04:51:18pm, dynamic, 1_6_vs_2_6, true, RIGHT, 2375, 0, 1, 0, 1
94,2018-08-23 04:51:21pm, dynamic, 1_6_vs_2_6, true, RIGHT, 2361, 0, 1, 0, 1
95,2018-08-23 04:51:23pm, dynamic, 1_6_vs_2_6, true, RIGHT, 2368, 0, 1, 0, 1
96,2018-08-23 04:51:26pm, dynamic, 1_6_vs_2_6, true, RIGHT, 2400, 0, 1, 0, 1
97,2018-08-23 04:51:28pm, dynamic, 1_6_vs_2_6, true, RIGHT, 2456, 0, 1, 0, 1
98,2018-08-23 04:51:30pm, dynamic, 1_6_vs_2_6, true, RIGHT, 2400, 0, 1, 0, 1
99,2018-08-23 04:51:33pm, dynamic, 1_6_vs_2_6, true, RIGHT, 2407, 0, 1, 0, 1
