[{"RT":1215,"time": "2018-08-23 04:47:03pm", "schedule_type": "dynamic", "schedule_name": "1_6_vs_2_6", "is_biased_choice":true,"side_choice": "LEFT", "trial_number":0,"observed_reward":0,"unobserved_reward":0},{"RT":3230,"time": "2018-08-23 04:47:06pm", "schedule_type": "dynamic", "schedule_name": "1_6_vs_2_6", "is_biased_choice":false,"side_choice": "RIGHT", "trial_number":1,"observed_reward":0,"unobserved_reward":0},{"RT":2415,"time": "2018-08-23 04:47:08pm", "schedule_type": "dynamic", "schedule_name": "1_6_vs_2_6", "is_biased_choice":false,"side_choice": "RIGHT", "trial_number":2,"observed_reward":0,"unobserved_reward":0},{"RT":2619,"time": "2018-08-23 04:47:11pm", "schedule_type": "dynamic", "schedule_name": "1_6_vs_2_6", "is_biased_choice":false,"side_choice": "RIGHT", "trial_number":3,"observed_reward":0,"unobserved_reward":0},{"RT":2735,"time": "2018-08-23 04:47:14pm", "schedule_type": "dynamic", "schedule_name": "1_6_vs_2_6", "is_biased_choice":false,"side_choice": "RIGHT", "trial_number":4,"observed_reward":0,"unobserved_reward":0},{"RT":2692,"time": "2018-08-23 04:47:16pm", "schedule_type": "dynamic", "schedule_name": "1_6_vs_2_6", "is_biased_choice":true,"side_choice": "LEFT", "trial_number":5,"observed_reward":0,"unobserved_reward":0},{"RT":2892,"time": "2018-08-23 04:47:19pm", "schedule_type": "dynamic", "schedule_name": "1_6_vs_2_6", "is_biased_choice":true,"side_choice": "LEFT", "trial_number":6,"observed_reward":0,"unobserved_reward":0},{"RT":3035,"time": "2018-08-23 04:47:22pm", "schedule_type": "dynamic", "schedule_name": "1_6_vs_2_6", "is_biased_choice":true,"side_choice": "LEFT", "trial_number":7,"observed_reward":0,"unobserved_reward":0},{"RT":2641,"time": "2018-08-23 04:47:25pm", "schedule_type": "dynamic", "schedule_name": "1_6_vs_2_6", "is_biased_choice":true,"side_choice": "LEFT", "trial_number":8,"observed_reward":0,"unobserved_reward":0},{"RT":3023,"time": "2018-08-23 04:47:28pm", "schedule_type": "dynamic", "schedule_name": "1_6_vs_2_6", "is_biased_choice":false,"side_choice": "RIGHT", "trial_number":9,"observed_reward":0,"unobserved_reward":1},{"RT":3252,"time": "2018-08-23 04:47:31pm", "schedule_type": "dynamic", "schedule_name": "1_6_vs_2_6", "is_biased_choice":false,"side_choice": "RIGHT", "trial_number":10,"observed_reward":0,"unobserved_reward":0},{"RT":3116,"time": "2018-08-23 04:47:34pm", "schedule_type": "dynamic", "schedule_name": "1_6_vs_2_6", "is_biased_choice":false,"side_choice": "RIGHT", "trial_number":11,"observed_reward":0,"unobserved_reward":0},{"RT":2758,"time": "2018-08-23 04:47:37pm", "schedule_type": "dynamic", "schedule_name": "1_6_vs_2_6", "is_biased_choice":false,"side_choice": "RIGHT", "trial_number":12,"observed_reward":0,"unobserved_reward":0},{"RT":2885,"time": "2018-08-23 04:47:40pm", "schedule_type": "dynamic", "schedule_name": "1_6_vs_2_6", "is_biased_choice":false,"side_choice": "RIGHT", "trial_number":13,"observed_reward":0,"unobserved_reward":0},{"RT":4528,"time": "2018-08-23 04:47:45pm", "schedule_type": "dynamic", "schedule_name": "1_6_vs_2_6", "is_biased_choice":true,"side_choice": "LEFT", "trial_number":14,"observed_reward":0,"unobserved_reward":0},{"RT":3832,"time": "2018-08-23 04:47:48pm", "schedule_type": "dynamic", "schedule_name": "1_6_vs_2_6", "is_biased_choice":true,"side_choice": "LEFT", "trial_number":15,"observed_reward":1,"unobserved_reward":0},{"RT":4305,"time": "2018-08-23 04:47:52pm", "schedule_type": "dynamic", "schedule_name": "1_6_vs_2_6", "is_biased_choice":true,"side_choice": "LEFT", "trial_number":16,"observed_reward":0,"unobserved_reward":0},{"RT":3831,"time": "2018-08-23 04:47:57pm", "schedule_type": "dynamic", "schedule_name": "1_6_vs_2_6", "is_biased_choice":false,"side_choice": "RIGHT", "trial_number":17,"observed_reward":0,"unobserved_reward":1},{"RT":3238,"time": "2018-08-23 04:48:00pm", "schedule_type": "dynamic", "schedule_name": "1_6_vs_2_6", "is_biased_choice":true,"side_choice": "LEFT", "trial_number":18,"observed_reward":0,"unobserved_reward":0},{"RT":4714,"time": "2018-08-23 04:48:04pm", "schedule_type": "dynamic", "schedule_name": "1_6_vs_2_6", "is_biased_choice":true,"side_choice": "LEFT", "trial_number":19,"observed_reward":0,"unobserved_reward":0},{"RT":3839,"time": "2018-08-23 04:48:08pm", "schedule_type": "dynamic", "schedule_name": "1_6_vs_2_6", "is_biased_choice":false,"side_choice": "RIGHT", "trial_number":20,"observed_reward":0,"unobserved_reward":0},{"RT":4931,"time": "2018-08-23 04:48:13pm", "schedule_type": "dynamic", "schedule_name": "1_6_vs_2_6", "is_biased_choice":true,"side_choice": "LEFT", "trial_number":21,"observed_reward":1,"unobserved_reward":0},{"RT":4416,"time": "2018-08-23 04:48:18pm", "schedule_type": "dynamic", "schedule_name": "1_6_vs_2_6", "is_biased_choice":true,"side_choice": "LEFT", "trial_number":22,"observed_reward":1,"unobserved_reward":1},{"RT":4474,"time": "2018-08-23 04:48:22pm", "schedule_type": "dynamic", "schedule_name": "1_6_vs_2_6", "is_biased_choice":true,"side_choice": "LEFT", "trial_number":23,"observed_reward":0,"unobserved_reward":0},{"RT":6688,"time": "2018-08-23 04:48:29pm", "schedule_type": "dynamic", "schedule_name": "1_6_vs_2_6", "is_biased_choice":true,"side_choice": "LEFT", "trial_number":24,"observed_reward":0,"unobserved_reward":0},{"RT":5122,"time": "2018-08-23 04:48:34pm", "schedule_type": "dynamic", "schedule_name": "1_6_vs_2_6", "is_biased_choice":false,"side_choice": "RIGHT", "trial_number":25,"observed_reward":0,"unobserved_reward":0},{"RT":4579,"time": "2018-08-23 04:48:39pm", "schedule_type": "dynamic", "schedule_name": "1_6_vs_2_6", "is_biased_choice":false,"side_choice": "RIGHT", "trial_number":26,"observed_reward":0,"unobserved_reward":0},{"RT":4537,"time": "2018-08-23 04:48:43pm", "schedule_type": "dynamic", "schedule_name": "1_6_vs_2_6", "is_biased_choice":false,"side_choice": "RIGHT", "trial_number":27,"observed_reward":0,"unobserved_reward":1},{"RT":4970,"time": "2018-08-23 04:48:48pm", "schedule_type": "dynamic", "schedule_name": "1_6_vs_2_6", "is_biased_choice":true,"side_choice": "LEFT", "trial_number":28,"observed_reward":1,"unobserved_reward":0},{"RT":3952,"time": "2018-08-23 04:48:52pm", "schedule_type": "dynamic", "schedule_name": "1_6_vs_2_6", "is_biased_choice":true,"side_choice": "LEFT", "trial_number":29,"observed_reward":1,"unobserved_reward":0},{"RT":3944,"time": "2018-08-23 04:48:56pm", "schedule_type": "dynamic", "schedule_name": "1_6_vs_2_6", "is_biased_choice":false,"side_choice": "RIGHT", "trial_number":30,"observed_reward":0,"unobserved_reward":0},{"RT":5420,"time": "2018-08-23 04:49:01pm", "schedule_type": "dynamic", "schedule_name": "1_6_vs_2_6", "is_biased_choice":true,"side_choice": "LEFT", "trial_number":31,"observed_reward":0,"unobserved_reward":1},{"RT":3668,"time": "2018-08-23 04:49:05pm", "schedule_type": "dynamic", "schedule_name": "1_6_vs_2_6", "is_biased_choice":true,"side_choice": "LEFT", "trial_number":32,"observed_reward":0,"unobserved_reward":0},{"RT":3521,"time": "2018-08-23 04:49:09pm", "schedule_type": "dynamic", "schedule_name": "1_6_vs_2_6", "is_biased_choice":false,"side_choice": "RIGHT", "trial_number":33,"observed_reward":0,"unobserved_reward":0},{"RT":3640,"time": "2018-08-23 04:49:12pm", "schedule_type": "dynamic", "schedule_name": "1_6_vs_2_6", "is_biased_choice":false,"side_choice": "RIGHT", "trial_number":34,"observed_reward":0,"unobserved_reward":1},{"RT":3797,"time": "2018-08-23 04:49:16pm", "schedule_type": "dynamic", "schedule_name": "1_6_vs_2_6", "is_biased_choice":false,"side_choice": "RIGHT", "trial_number":35,"observed_reward":1,"unobserved_reward":1},{"RT":7234,"time": "2018-08-23 04:49:23pm", "schedule_type": "dynamic", "schedule_name": "1_6_vs_2_6", "is_biased_choice":false,"side_choice": "RIGHT", "trial_number":36,"observed_reward":0,"unobserved_reward":0},{"RT":4008,"time": "2018-08-23 04:49:27pm", "schedule_type": "dynamic", "schedule_name": "1_6_vs_2_6", "is_biased_choice":false,"side_choice": "RIGHT", "trial_number":37,"observed_reward":1,"unobserved_reward":1},{"RT":4210,"time": "2018-08-23 04:49:31pm", "schedule_type": "dynamic", "schedule_name": "1_6_vs_2_6", "is_biased_choice":false,"side_choice": "RIGHT", "trial_number":38,"observed_reward":0,"unobserved_reward":0},{"RT":7862,"time": "2018-08-23 04:49:39pm", "schedule_type": "dynamic", "schedule_name": "1_6_vs_2_6", "is_biased_choice":false,"side_choice": "RIGHT", "trial_number":39,"observed_reward":1,"unobserved_reward":0},{"RT":4389,"time": "2018-08-23 04:49:43pm", "schedule_type": "dynamic", "schedule_name": "1_6_vs_2_6", "is_biased_choice":false,"side_choice": "RIGHT", "trial_number":40,"observed_reward":0,"unobserved_reward":0},{"RT":5346,"time": "2018-08-23 04:49:49pm", "schedule_type": "dynamic", "schedule_name": "1_6_vs_2_6", "is_biased_choice":false,"side_choice": "RIGHT", "trial_number":41,"observed_reward":0,"unobserved_reward":1},{"RT":4296,"time": "2018-08-23 04:49:53pm", "schedule_type": "dynamic", "schedule_name": "1_6_vs_2_6", "is_biased_choice":false,"side_choice": "RIGHT", "trial_number":42,"observed_reward":1,"unobserved_reward":0},{"RT":5420,"time": "2018-08-23 04:49:59pm", "schedule_type": "dynamic", "schedule_name": "1_6_vs_2_6", "is_biased_choice":true,"side_choice": "LEFT", "trial_number":43,"observed_reward":0,"unobserved_reward":0},{"RT":4579,"time": "2018-08-23 04:50:03pm", "schedule_type": "dynamic", "schedule_name": "1_6_vs_2_6", "is_biased_choice":false,"side_choice": "RIGHT", "trial_number":44,"observed_reward":0,"unobserved_reward":1},{"RT":3887,"time": "2018-08-23 04:50:07pm", "schedule_type": "dynamic", "schedule_name": "1_6_vs_2_6", "is_biased_choice":true,"side_choice": "LEFT", "trial_number":45,"observed_reward":1,"unobserved_reward":0},{"RT":3918,"time": "2018-08-23 04:50:11pm", "schedule_type": "dynamic", "schedule_name": "1_6_vs_2_6", "is_biased_choice":true,"side_choice": "LEFT", "trial_number":46,"observed_reward":1,"unobserved_reward":0},{"RT":4059,"time": "2018-08-23 04:50:15pm", "schedule_type": "dynamic", "schedule_name": "1_6_vs_2_6", "is_biased_choice":true,"side_choice": "LEFT", "trial_number":47,"observed_reward":1,"unobserved_reward":0},{"RT":4479,"time": "2018-08-23 04:50:20pm", "schedule_type": "dynamic", "schedule_name": "1_6_vs_2_6", "is_biased_choice":true,"side_choice": "LEFT", "trial_number":48,"observed_reward":0,"unobserved_reward":0},{"RT":4274,"time": "2018-08-23 04:50:24pm", "schedule_type": "dynamic", "schedule_name": "1_6_vs_2_6", "is_biased_choice":true,"side_choice": "LEFT", "trial_number":49,"observed_reward":1,"unobserved_reward":0},{"RT":4176,"time": "2018-08-23 04:50:28pm", "schedule_type": "dynamic", "schedule_name": "1_6_vs_2_6", "is_biased_choice":true,"side_choice": "LEFT", "trial_number":50,"observed_reward":0,"unobserved_reward":0},{"RT":5452,"time": "2018-08-23 04:50:33pm", "schedule_type": "dynamic", "schedule_name": "1_6_vs_2_6", "is_biased_choice":true,"side_choice": "LEFT", "trial_number":51,"observed_reward":0,"unobserved_reward":0},{"RT":6239,"time": "2018-08-23 04:50:40pm", "schedule_type": "dynamic", "schedule_name": "1_6_vs_2_6", "is_biased_choice":false,"side_choice": "RIGHT", "trial_number":52,"observed_reward":0,"unobserved_reward":0},{"RT":3855,"time": "2018-08-23 04:50:43pm", "schedule_type": "dynamic", "schedule_name": "1_6_vs_2_6", "is_biased_choice":false,"side_choice": "RIGHT", "trial_number":53,"observed_reward":0,"unobserved_reward":0},{"RT":3852,"time": "2018-08-23 04:50:48pm", "schedule_type": "dynamic", "schedule_name": "1_6_vs_2_6", "is_biased_choice":false,"side_choice": "RIGHT", "trial_number":54,"observed_reward":0,"unobserved_reward":1},{"RT":3512,"time": "2018-08-23 04:50:51pm", "schedule_type": "dynamic", "schedule_name": "1_6_vs_2_6", "is_biased_choice":false,"side_choice": "RIGHT", "trial_number":55,"observed_reward":0,"unobserved_reward":0},{"RT":4727,"time": "2018-08-23 04:50:56pm", "schedule_type": "dynamic", "schedule_name": "1_6_vs_2_6", "is_biased_choice":true,"side_choice": "LEFT", "trial_number":56,"observed_reward":1,"unobserved_reward":0},{"RT":3441,"time": "2018-08-23 04:50:59pm", "schedule_type": "dynamic", "schedule_name": "1_6_vs_2_6", "is_biased_choice":true,"side_choice": "LEFT", "trial_number":57,"observed_reward":0,"unobserved_reward":0},{"RT":3640,"time": "2018-08-23 04:51:03pm", "schedule_type": "dynamic", "schedule_name": "1_6_vs_2_6", "is_biased_choice":true,"side_choice": "LEFT", "trial_number":58,"observed_reward":0,"unobserved_reward":0},{"RT":4908,"time": "2018-08-23 04:51:08pm", "schedule_type": "dynamic", "schedule_name": "1_6_vs_2_6", "is_biased_choice":true,"side_choice": "LEFT", "trial_number":59,"observed_reward":0,"unobserved_reward":1},{"RT":3929,"time": "2018-08-23 04:51:11pm", "schedule_type": "dynamic", "schedule_name": "1_6_vs_2_6", "is_biased_choice":false,"side_choice": "RIGHT", "trial_number":60,"observed_reward":1,"unobserved_reward":1},{"RT":3911,"time": "2018-08-23 04:51:16pm", "schedule_type": "dynamic", "schedule_name": "1_6_vs_2_6", "is_biased_choice":false,"side_choice": "RIGHT", "trial_number":61,"observed_reward":0,"unobserved_reward":0},{"RT":3840,"time": "2018-08-23 04:51:19pm", "schedule_type": "dynamic", "schedule_name": "1_6_vs_2_6", "is_biased_choice":false,"side_choice": "RIGHT", "trial_number":62,"observed_reward":0,"unobserved_reward":1},{"RT":3391,"time": "2018-08-23 04:51:23pm", "schedule_type": "dynamic", "schedule_name": "1_6_vs_2_6", "is_biased_choice":false,"side_choice": "RIGHT", "trial_number":63,"observed_reward":1,"unobserved_reward":1},{"RT":3924,"time": "2018-08-23 04:51:27pm", "schedule_type": "dynamic", "schedule_name": "1_6_vs_2_6", "is_biased_choice":false,"side_choice": "RIGHT", "trial_number":64,"observed_reward":1,"unobserved_reward":1},{"RT":4073,"time": "2018-08-23 04:51:31pm", "schedule_type": "dynamic", "schedule_name": "1_6_vs_2_6", "is_biased_choice":false,"side_choice": "RIGHT", "trial_number":65,"observed_reward":0,"unobserved_reward":0},{"RT":3840,"time": "2018-08-23 04:51:34pm", "schedule_type": "dynamic", "schedule_name": "1_6_vs_2_6", "is_biased_choice":true,"side_choice": "LEFT", "trial_number":66,"observed_reward":0,"unobserved_reward":0},{"RT":3625,"time": "2018-08-23 04:51:38pm", "schedule_type": "dynamic", "schedule_name": "1_6_vs_2_6", "is_biased_choice":true,"side_choice": "LEFT", "trial_number":67,"observed_reward":0,"unobserved_reward":0},{"RT":3374,"time": "2018-08-23 04:51:41pm", "schedule_type": "dynamic", "schedule_name": "1_6_vs_2_6", "is_biased_choice":true,"side_choice": "LEFT", "trial_number":68,"observed_reward":0,"unobserved_reward":0},{"RT":3640,"time": "2018-08-23 04:51:45pm", "schedule_type": "dynamic", "schedule_name": "1_6_vs_2_6", "is_biased_choice":true,"side_choice": "LEFT", "trial_number":69,"observed_reward":0,"unobserved_reward":0},{"RT":3531,"time": "2018-08-23 04:51:49pm", "schedule_type": "dynamic", "schedule_name": "1_6_vs_2_6", "is_biased_choice":false,"side_choice": "RIGHT", "trial_number":70,"observed_reward":0,"unobserved_reward":0},{"RT":3742,"time": "2018-08-23 04:51:52pm", "schedule_type": "dynamic", "schedule_name": "1_6_vs_2_6", "is_biased_choice":false,"side_choice": "RIGHT", "trial_number":71,"observed_reward":0,"unobserved_reward":1},{"RT":3241,"time": "2018-08-23 04:51:56pm", "schedule_type": "dynamic", "schedule_name": "1_6_vs_2_6", "is_biased_choice":false,"side_choice": "RIGHT", "trial_number":72,"observed_reward":0,"unobserved_reward":1},{"RT":3538,"time": "2018-08-23 04:52:00pm", "schedule_type": "dynamic", "schedule_name": "1_6_vs_2_6", "is_biased_choice":false,"side_choice": "RIGHT", "trial_number":73,"observed_reward":0,"unobserved_reward":0},{"RT":4154,"time": "2018-08-23 04:52:04pm", "schedule_type": "dynamic", "schedule_name": "1_6_vs_2_6", "is_biased_choice":true,"side_choice": "LEFT", "trial_number":74,"observed_reward":0,"unobserved_reward":0},{"RT":3270,"time": "2018-08-23 04:52:07pm", "schedule_type": "dynamic", "schedule_name": "1_6_vs_2_6", "is_biased_choice":true,"side_choice": "LEFT", "trial_number":75,"observed_reward":0,"unobserved_reward":0},{"RT":3488,"time": "2018-08-23 04:52:10pm", "schedule_type": "dynamic", "schedule_name": "1_6_vs_2_6", "is_biased_choice":true,"side_choice": "LEFT", "trial_number":76,"observed_reward":0,"unobserved_reward":0},{"RT":3632,"time": "2018-08-23 04:52:14pm", "schedule_type": "dynamic", "schedule_name": "1_6_vs_2_6", "is_biased_choice":true,"side_choice": "LEFT", "trial_number":77,"observed_reward":0,"unobserved_reward":1},{"RT":5837,"time": "2018-08-23 04:52:19pm", "schedule_type": "dynamic", "schedule_name": "1_6_vs_2_6", "is_biased_choice":true,"side_choice": "LEFT", "trial_number":78,"observed_reward":0,"unobserved_reward":0},{"RT":3747,"time": "2018-08-23 04:52:24pm", "schedule_type": "dynamic", "schedule_name": "1_6_vs_2_6", "is_biased_choice":true,"side_choice": "LEFT", "trial_number":79,"observed_reward":0,"unobserved_reward":1},{"RT":3624,"time": "2018-08-23 04:52:27pm", "schedule_type": "dynamic", "schedule_name": "1_6_vs_2_6", "is_biased_choice":true,"side_choice": "LEFT", "trial_number":80,"observed_reward":0,"unobserved_reward":1},{"RT":4873,"time": "2018-08-23 04:52:32pm", "schedule_type": "dynamic", "schedule_name": "1_6_vs_2_6", "is_biased_choice":false,"side_choice": "RIGHT", "trial_number":81,"observed_reward":0,"unobserved_reward":0},{"RT":4009,"time": "2018-08-23 04:52:36pm", "schedule_type": "dynamic", "schedule_name": "1_6_vs_2_6", "is_biased_choice":true,"side_choice": "LEFT", "trial_number":82,"observed_reward":0,"unobserved_reward":0},{"RT":4719,"time": "2018-08-23 04:52:41pm", "schedule_type": "dynamic", "schedule_name": "1_6_vs_2_6", "is_biased_choice":false,"side_choice": "RIGHT", "trial_number":83,"observed_reward":0,"unobserved_reward":0},{"RT":6414,"time": "2018-08-23 04:52:47pm", "schedule_type": "dynamic", "schedule_name": "1_6_vs_2_6", "is_biased_choice":false,"side_choice": "RIGHT", "trial_number":84,"observed_reward":1,"unobserved_reward":0},{"RT":5155,"time": "2018-08-23 04:52:52pm", "schedule_type": "dynamic", "schedule_name": "1_6_vs_2_6", "is_biased_choice":false,"side_choice": "RIGHT", "trial_number":85,"observed_reward":0,"unobserved_reward":0},{"RT":3491,"time": "2018-08-23 04:52:56pm", "schedule_type": "dynamic", "schedule_name": "1_6_vs_2_6", "is_biased_choice":false,"side_choice": "RIGHT", "trial_number":86,"observed_reward":1,"unobserved_reward":0},{"RT":3756,"time": "2018-08-23 04:53:00pm", "schedule_type": "dynamic", "schedule_name": "1_6_vs_2_6", "is_biased_choice":false,"side_choice": "RIGHT", "trial_number":87,"observed_reward":0,"unobserved_reward":0},{"RT":4071,"time": "2018-08-23 04:53:04pm", "schedule_type": "dynamic", "schedule_name": "1_6_vs_2_6", "is_biased_choice":false,"side_choice": "RIGHT", "trial_number":88,"observed_reward":0,"unobserved_reward":0},{"RT":4227,"time": "2018-08-23 04:53:08pm", "schedule_type": "dynamic", "schedule_name": "1_6_vs_2_6", "is_biased_choice":false,"side_choice": "RIGHT", "trial_number":89,"observed_reward":0,"unobserved_reward":0},{"RT":6399,"time": "2018-08-23 04:53:14pm", "schedule_type": "dynamic", "schedule_name": "1_6_vs_2_6", "is_biased_choice":true,"side_choice": "LEFT", "trial_number":90,"observed_reward":0,"unobserved_reward":1},{"RT":3930,"time": "2018-08-23 04:53:18pm", "schedule_type": "dynamic", "schedule_name": "1_6_vs_2_6", "is_biased_choice":true,"side_choice": "LEFT", "trial_number":91,"observed_reward":0,"unobserved_reward":1},{"RT":3431,"time": "2018-08-23 04:53:22pm", "schedule_type": "dynamic", "schedule_name": "1_6_vs_2_6", "is_biased_choice":true,"side_choice": "LEFT", "trial_number":92,"observed_reward":0,"unobserved_reward":1},{"RT":5966,"time": "2018-08-23 04:53:27pm", "schedule_type": "dynamic", "schedule_name": "1_6_vs_2_6", "is_biased_choice":false,"side_choice": "RIGHT", "trial_number":93,"observed_reward":1,"unobserved_reward":0},{"RT":3657,"time": "2018-08-23 04:53:31pm", "schedule_type": "dynamic", "schedule_name": "1_6_vs_2_6", "is_biased_choice":false,"side_choice": "RIGHT", "trial_number":94,"observed_reward":1,"unobserved_reward":0},{"RT":3800,"time": "2018-08-23 04:53:35pm", "schedule_type": "dynamic", "schedule_name": "1_6_vs_2_6", "is_biased_choice":false,"side_choice": "RIGHT", "trial_number":95,"observed_reward":1,"unobserved_reward":0},{"RT":5115,"time": "2018-08-23 04:53:40pm", "schedule_type": "dynamic", "schedule_name": "1_6_vs_2_6", "is_biased_choice":true,"side_choice": "LEFT", "trial_number":96,"observed_reward":0,"unobserved_reward":1},{"RT":4136,"time": "2018-08-23 04:53:44pm", "schedule_type": "dynamic", "schedule_name": "1_6_vs_2_6", "is_biased_choice":true,"side_choice": "LEFT", "trial_number":97,"observed_reward":0,"unobserved_reward":1},{"RT":3870,"time": "2018-08-23 04:53:48pm", "schedule_type": "dynamic", "schedule_name": "1_6_vs_2_6", "is_biased_choice":true,"side_choice": "LEFT", "trial_number":98,"observed_reward":0,"unobserved_reward":1},