[{"RT":4735,"time": "2018-08-23 04:48:49pm", "schedule_type": "dynamic", "schedule_name": "1_6_vs_2_6", "is_biased_choice":true,"side_choice": "RIGHT", "trial_number":0,"observed_reward":0,"unobserved_reward":0},{"RT":3008,"time": "2018-08-23 04:48:52pm", "schedule_type": "dynamic", "schedule_name": "1_6_vs_2_6", "is_biased_choice":false,"side_choice": "LEFT", "trial_number":1,"observed_reward":0,"unobserved_reward":1},{"RT":2551,"time": "2018-08-23 04:48:55pm", "schedule_type": "dynamic", "schedule_name": "1_6_vs_2_6", "is_biased_choice":true,"side_choice": "RIGHT", "trial_number":2,"observed_reward":0,"unobserved_reward":0},{"RT":2553,"time": "2018-08-23 04:48:57pm", "schedule_type": "dynamic", "schedule_name": "1_6_vs_2_6", "is_biased_choice":false,"side_choice": "LEFT", "trial_number":3,"observed_reward":0,"unobserved_reward":0},{"RT":2343,"time": "2018-08-23 04:49:00pm", "schedule_type": "dynamic", "schedule_name": "1_6_vs_2_6", "is_biased_choice":true,"side_choice": "RIGHT", "trial_number":4,"observed_reward":0,"unobserved_reward":0},{"RT":2664,"time": "2018-08-23 04:49:02pm", "schedule_type": "dynamic", "schedule_name": "1_6_vs_2_6", "is_biased_choice":true,"side_choice": "RIGHT", "trial_number":5,"observed_reward":0,"unobserved_reward":1},{"RT":2592,"time": "2018-08-23 04:49:05pm", "schedule_type": "dynamic", "schedule_name": "1_6_vs_2_6", "is_biased_choice":false,"side_choice": "LEFT", "trial_number":6,"observed_reward":0,"unobserved_reward":1},{"RT":2424,"time": "2018-08-23 04:49:07pm", "schedule_type": "dynamic", "schedule_name": "1_6_vs_2_6", "is_biased_choice":true,"side_choice": "RIGHT", "trial_number":7,"observed_reward":1,"unobserved_reward":0},{"RT":3240,"time": "2018-08-23 04:49:10pm", "schedule_type": "dynamic", "schedule_name": "1_6_vs_2_6", "is_biased_choice":true,"side_choice": "RIGHT", "trial_number":8,"observed_reward":1,"unobserved_reward":1},{"RT":2761,"time": "2018-08-23 04:49:13pm", "schedule_type": "dynamic", "schedule_name": "1_6_vs_2_6", "is_biased_choice":false,"side_choice": "LEFT", "trial_number":9,"observed_reward":0,"unobserved_reward":0},{"RT":2984,"time": "2018-08-23 04:49:16pm", "schedule_type": "dynamic", "schedule_name": "1_6_vs_2_6", "is_biased_choice":true,"side_choice": "RIGHT", "trial_number":10,"observed_reward":1,"unobserved_reward":1},{"RT":3086,"time": "2018-08-23 04:49:19pm", "schedule_type": "dynamic", "schedule_name": "1_6_vs_2_6", "is_biased_choice":true,"side_choice": "RIGHT", "trial_number":11,"observed_reward":0,"unobserved_reward":0},{"RT":2785,"time": "2018-08-23 04:49:22pm", "schedule_type": "dynamic", "schedule_name": "1_6_vs_2_6", "is_biased_choice":true,"side_choice": "RIGHT", "trial_number":12,"observed_reward":1,"unobserved_reward":0},{"RT":3241,"time": "2018-08-23 04:49:25pm", "schedule_type": "dynamic", "schedule_name": "1_6_vs_2_6", "is_biased_choice":false,"side_choice": "LEFT", "trial_number":13,"observed_reward":0,"unobserved_reward":0},{"RT":2583,"time": "2018-08-23 04:49:28pm", "schedule_type": "dynamic", "schedule_name": "1_6_vs_2_6", "is_biased_choice":true,"side_choice": "RIGHT", "trial_number":14,"observed_reward":0,"unobserved_reward":0},{"RT":2727,"time": "2018-08-23 04:49:30pm", "schedule_type": "dynamic", "schedule_name": "1_6_vs_2_6", "is_biased_choice":false,"side_choice": "LEFT", "trial_number":15,"observed_reward":0,"unobserved_reward":1},{"RT":2672,"time": "2018-08-23 04:49:33pm", "schedule_type": "dynamic", "schedule_name": "1_6_vs_2_6", "is_biased_choice":true,"side_choice": "RIGHT", "trial_number":16,"observed_reward":1,"unobserved_reward":1},{"RT":3040,"time": "2018-08-23 04:49:36pm", "schedule_type": "dynamic", "schedule_name": "1_6_vs_2_6", "is_biased_choice":true,"side_choice": "RIGHT", "trial_number":17,"observed_reward":0,"unobserved_reward":0},{"RT":3056,"time": "2018-08-23 04:49:39pm", "schedule_type": "dynamic", "schedule_name": "1_6_vs_2_6", "is_biased_choice":false,"side_choice": "LEFT", "trial_number":18,"observed_reward":0,"unobserved_reward":0},{"RT":2608,"time": "2018-08-23 04:49:42pm", "schedule_type": "dynamic", "schedule_name": "1_6_vs_2_6", "is_biased_choice":true,"side_choice": "RIGHT", "trial_number":19,"observed_reward":0,"unobserved_reward":0},{"RT":2584,"time": "2018-08-23 04:49:45pm", "schedule_type": "dynamic", "schedule_name": "1_6_vs_2_6", "is_biased_choice":true,"side_choice": "RIGHT", "trial_number":20,"observed_reward":0,"unobserved_reward":0},{"RT":3568,"time": "2018-08-23 04:49:48pm", "schedule_type": "dynamic", "schedule_name": "1_6_vs_2_6", "is_biased_choice":true,"side_choice": "RIGHT", "trial_number":21,"observed_reward":0,"unobserved_reward":0},{"RT":2776,"time": "2018-08-23 04:49:51pm", "schedule_type": "dynamic", "schedule_name": "1_6_vs_2_6", "is_biased_choice":true,"side_choice": "RIGHT", "trial_number":22,"observed_reward":0,"unobserved_reward":0},{"RT":3560,"time": "2018-08-23 04:49:54pm", "schedule_type": "dynamic", "schedule_name": "1_6_vs_2_6", "is_biased_choice":false,"side_choice": "LEFT", "trial_number":23,"observed_reward":0,"unobserved_reward":0},{"RT":2456,"time": "2018-08-23 04:49:57pm", "schedule_type": "dynamic", "schedule_name": "1_6_vs_2_6", "is_biased_choice":true,"side_choice": "RIGHT", "trial_number":24,"observed_reward":1,"unobserved_reward":0},{"RT":2895,"time": "2018-08-23 04:50:00pm", "schedule_type": "dynamic", "schedule_name": "1_6_vs_2_6", "is_biased_choice":true,"side_choice": "RIGHT", "trial_number":25,"observed_reward":0,"unobserved_reward":0},{"RT":2456,"time": "2018-08-23 04:50:02pm", "schedule_type": "dynamic", "schedule_name": "1_6_vs_2_6", "is_biased_choice":true,"side_choice": "RIGHT", "trial_number":26,"observed_reward":0,"unobserved_reward":1},{"RT":2649,"time": "2018-08-23 04:50:05pm", "schedule_type": "dynamic", "schedule_name": "1_6_vs_2_6", "is_biased_choice":true,"side_choice": "RIGHT", "trial_number":27,"observed_reward":1,"unobserved_reward":0},{"RT":3639,"time": "2018-08-23 04:50:09pm", "schedule_type": "dynamic", "schedule_name": "1_6_vs_2_6", "is_biased_choice":true,"side_choice": "RIGHT", "trial_number":28,"observed_reward":1,"unobserved_reward":0},{"RT":2672,"time": "2018-08-23 04:50:11pm", "schedule_type": "dynamic", "schedule_name": "1_6_vs_2_6", "is_biased_choice":true,"side_choice": "RIGHT", "trial_number":29,"observed_reward":0,"unobserved_reward":0},{"RT":2489,"time": "2018-08-23 04:50:13pm", "schedule_type": "dynamic", "schedule_name": "1_6_vs_2_6", "is_biased_choice":false,"side_choice": "LEFT", "trial_number":30,"observed_reward":0,"unobserved_reward":0},{"RT":2568,"time": "2018-08-23 04:50:16pm", "schedule_type": "dynamic", "schedule_name": "1_6_vs_2_6", "is_biased_choice":true,"side_choice": "RIGHT", "trial_number":31,"observed_reward":0,"unobserved_reward":0},{"RT":4415,"time": "2018-08-23 04:50:21pm", "schedule_type": "dynamic", "schedule_name": "1_6_vs_2_6", "is_biased_choice":false,"side_choice": "LEFT", "trial_number":32,"observed_reward":0,"unobserved_reward":0},{"RT":2392,"time": "2018-08-23 04:50:23pm", "schedule_type": "dynamic", "schedule_name": "1_6_vs_2_6", "is_biased_choice":true,"side_choice": "RIGHT", "trial_number":33,"observed_reward":1,"unobserved_reward":1},{"RT":2944,"time": "2018-08-23 04:50:26pm", "schedule_type": "dynamic", "schedule_name": "1_6_vs_2_6", "is_biased_choice":true,"side_choice": "RIGHT", "trial_number":34,"observed_reward":1,"unobserved_reward":0},{"RT":2808,"time": "2018-08-23 04:50:29pm", "schedule_type": "dynamic", "schedule_name": "1_6_vs_2_6", "is_biased_choice":true,"side_choice": "RIGHT", "trial_number":35,"observed_reward":0,"unobserved_reward":0},{"RT":4592,"time": "2018-08-23 04:50:34pm", "schedule_type": "dynamic", "schedule_name": "1_6_vs_2_6", "is_biased_choice":true,"side_choice": "RIGHT", "trial_number":36,"observed_reward":1,"unobserved_reward":0},{"RT":3288,"time": "2018-08-23 04:50:37pm", "schedule_type": "dynamic", "schedule_name": "1_6_vs_2_6", "is_biased_choice":false,"side_choice": "LEFT", "trial_number":37,"observed_reward":0,"unobserved_reward":0},{"RT":3048,"time": "2018-08-23 04:50:40pm", "schedule_type": "dynamic", "schedule_name": "1_6_vs_2_6", "is_biased_choice":true,"side_choice": "RIGHT", "trial_number":38,"observed_reward":0,"unobserved_reward":0},{"RT":2776,"time": "2018-08-23 04:50:42pm", "schedule_type": "dynamic", "schedule_name": "1_6_vs_2_6", "is_biased_choice":true,"side_choice": "RIGHT", "trial_number":39,"observed_reward":0,"unobserved_reward":0},{"RT":2591,"time": "2018-08-23 04:50:45pm", "schedule_type": "dynamic", "schedule_name": "1_6_vs_2_6", "is_biased_choice":false,"side_choice": "LEFT", "trial_number":40,"observed_reward":0,"unobserved_reward":0},{"RT":2537,"time": "2018-08-23 04:50:48pm", "schedule_type": "dynamic", "schedule_name": "1_6_vs_2_6", "is_biased_choice":true,"side_choice": "RIGHT", "trial_number":41,"observed_reward":0,"unobserved_reward":0},{"RT":2471,"time": "2018-08-23 04:50:50pm", "schedule_type": "dynamic", "schedule_name": "1_6_vs_2_6", "is_biased_choice":true,"side_choice": "RIGHT", "trial_number":42,"observed_reward":1,"unobserved_reward":0},{"RT":2777,"time": "2018-08-23 04:50:53pm", "schedule_type": "dynamic", "schedule_name": "1_6_vs_2_6", "is_biased_choice":true,"side_choice": "RIGHT", "trial_number":43,"observed_reward":1,"unobserved_reward":0},{"RT":2615,"time": "2018-08-23 04:50:56pm", "schedule_type": "dynamic", "schedule_name": "1_6_vs_2_6", "is_biased_choice":true,"side_choice": "RIGHT", "trial_number":44,"observed_reward":0,"unobserved_reward":1},{"RT":2472,"time": "2018-08-23 04:50:58pm", "schedule_type": "dynamic", "schedule_name": "1_6_vs_2_6", "is_biased_choice":true,"side_choice": "RIGHT", "trial_number":45,"observed_reward":1,"unobserved_reward":0},{"RT":3175,"time": "2018-08-23 04:51:01pm", "schedule_type": "dynamic", "schedule_name": "1_6_vs_2_6", "is_biased_choice":true,"side_choice": "RIGHT", "trial_number":46,"observed_reward":0,"unobserved_reward":0},{"RT":2385,"time": "2018-08-23 04:51:03pm", "schedule_type": "dynamic", "schedule_name": "1_6_vs_2_6", "is_biased_choice":true,"side_choice": "RIGHT", "trial_number":47,"observed_reward":1,"unobserved_reward":0},{"RT":2456,"time": "2018-08-23 04:51:06pm", "schedule_type": "dynamic", "schedule_name": "1_6_vs_2_6", "is_biased_choice":true,"side_choice": "RIGHT", "trial_number":48,"observed_reward":0,"unobserved_reward":0},{"RT":2700,"time": "2018-08-23 04:51:09pm", "schedule_type": "dynamic", "schedule_name": "1_6_vs_2_6", "is_biased_choice":true,"side_choice": "RIGHT", "trial_number":49,"observed_reward":0,"unobserved_reward":0},{"RT":2499,"time": "2018-08-23 04:51:11pm", "schedule_type": "dynamic", "schedule_name": "1_6_vs_2_6", "is_biased_choice":true,"side_choice": "RIGHT", "trial_number":50,"observed_reward":0,"unobserved_reward":0},{"RT":2752,"time": "2018-08-23 04:51:14pm", "schedule_type": "dynamic", "schedule_name": "1_6_vs_2_6", "is_biased_choice":false,"side_choice": "LEFT", "trial_number":51,"observed_reward":0,"unobserved_reward":1},{"RT":2273,"time": "2018-08-23 04:51:16pm", "schedule_type": "dynamic", "schedule_name": "1_6_vs_2_6", "is_biased_choice":true,"side_choice": "RIGHT", "trial_number":52,"observed_reward":0,"unobserved_reward":0},{"RT":2584,"time": "2018-08-23 04:51:19pm", "schedule_type": "dynamic", "schedule_name": "1_6_vs_2_6", "is_biased_choice":true,"side_choice": "RIGHT", "trial_number":53,"observed_reward":0,"unobserved_reward":0},{"RT":2431,"time": "2018-08-23 04:51:21pm", "schedule_type": "dynamic", "schedule_name": "1_6_vs_2_6", "is_biased_choice":false,"side_choice": "LEFT", "trial_number":54,"observed_reward":0,"unobserved_reward":0},{"RT":2296,"time": "2018-08-23 04:51:23pm", "schedule_type": "dynamic", "schedule_name": "1_6_vs_2_6", "is_biased_choice":true,"side_choice": "RIGHT", "trial_number":55,"observed_reward":1,"unobserved_reward":1},{"RT":3849,"time": "2018-08-23 04:51:27pm", "schedule_type": "dynamic", "schedule_name": "1_6_vs_2_6", "is_biased_choice":true,"side_choice": "RIGHT", "trial_number":56,"observed_reward":0,"unobserved_reward":0},{"RT":2335,"time": "2018-08-23 04:51:29pm", "schedule_type": "dynamic", "schedule_name": "1_6_vs_2_6", "is_biased_choice":true,"side_choice": "RIGHT", "trial_number":57,"observed_reward":1,"unobserved_reward":0},{"RT":2887,"time": "2018-08-23 04:51:33pm", "schedule_type": "dynamic", "schedule_name": "1_6_vs_2_6", "is_biased_choice":true,"side_choice": "RIGHT", "trial_number":58,"observed_reward":0,"unobserved_reward":0},{"RT":2402,"time": "2018-08-23 04:51:35pm", "schedule_type": "dynamic", "schedule_name": "1_6_vs_2_6", "is_biased_choice":true,"side_choice": "RIGHT", "trial_number":59,"observed_reward":1,"unobserved_reward":0},{"RT":2670,"time": "2018-08-23 04:51:38pm", "schedule_type": "dynamic", "schedule_name": "1_6_vs_2_6", "is_biased_choice":true,"side_choice": "RIGHT", "trial_number":60,"observed_reward":0,"unobserved_reward":0},{"RT":2528,"time": "2018-08-23 04:51:40pm", "schedule_type": "dynamic", "schedule_name": "1_6_vs_2_6", "is_biased_choice":true,"side_choice": "RIGHT", "trial_number":61,"observed_reward":0,"unobserved_reward":1},{"RT":2449,"time": "2018-08-23 04:51:43pm", "schedule_type": "dynamic", "schedule_name": "1_6_vs_2_6", "is_biased_choice":true,"side_choice": "RIGHT", "trial_number":62,"observed_reward":0,"unobserved_reward":0},{"RT":2480,"time": "2018-08-23 04:51:45pm", "schedule_type": "dynamic", "schedule_name": "1_6_vs_2_6", "is_biased_choice":true,"side_choice": "RIGHT", "trial_number":63,"observed_reward":0,"unobserved_reward":0},{"RT":2223,"time": "2018-08-23 04:51:47pm", "schedule_type": "dynamic", "schedule_name": "1_6_vs_2_6", "is_biased_choice":true,"side_choice": "RIGHT", "trial_number":64,"observed_reward":1,"unobserved_reward":1},{"RT":2712,"time": "2018-08-23 04:51:50pm", "schedule_type": "dynamic", "schedule_name": "1_6_vs_2_6", "is_biased_choice":true,"side_choice": "RIGHT", "trial_number":65,"observed_reward":0,"unobserved_reward":0},{"RT":2825,"time": "2018-08-23 04:51:53pm", "schedule_type": "dynamic", "schedule_name": "1_6_vs_2_6", "is_biased_choice":true,"side_choice": "RIGHT", "trial_number":66,"observed_reward":0,"unobserved_reward":0},{"RT":9878,"time": "2018-08-23 04:52:03pm", "schedule_type": "dynamic", "schedule_name": "1_6_vs_2_6", "is_biased_choice":true,"side_choice": "RIGHT", "trial_number":67,"observed_reward":0,"unobserved_reward":0},{"RT":3945,"time": "2018-08-23 04:52:07pm", "schedule_type": "dynamic", "schedule_name": "1_6_vs_2_6", "is_biased_choice":true,"side_choice": "RIGHT", "trial_number":68,"observed_reward":0,"unobserved_reward":0},{"RT":2968,"time": "2018-08-23 04:52:09pm", "schedule_type": "dynamic", "schedule_name": "1_6_vs_2_6", "is_biased_choice":true,"side_choice": "RIGHT", "trial_number":69,"observed_reward":1,"unobserved_reward":0},{"RT":5416,"time": "2018-08-23 04:52:15pm", "schedule_type": "dynamic", "schedule_name": "1_6_vs_2_6", "is_biased_choice":true,"side_choice": "RIGHT", "trial_number":70,"observed_reward":0,"unobserved_reward":0},{"RT":8927,"time": "2018-08-23 04:52:24pm", "schedule_type": "dynamic", "schedule_name": "1_6_vs_2_6", "is_biased_choice":true,"side_choice": "RIGHT", "trial_number":71,"observed_reward":0,"unobserved_reward":1},{"RT":2993,"time": "2018-08-23 04:52:27pm", "schedule_type": "dynamic", "schedule_name": "1_6_vs_2_6", "is_biased_choice":true,"side_choice": "RIGHT", "trial_number":72,"observed_reward":0,"unobserved_reward":0},{"RT":2383,"time": "2018-08-23 04:52:29pm", "schedule_type": "dynamic", "schedule_name": "1_6_vs_2_6", "is_biased_choice":true,"side_choice": "RIGHT", "trial_number":73,"observed_reward":1,"unobserved_reward":0},{"RT":2903,"time": "2018-08-23 04:52:32pm", "schedule_type": "dynamic", "schedule_name": "1_6_vs_2_6", "is_biased_choice":true,"side_choice": "RIGHT", "trial_number":74,"observed_reward":0,"unobserved_reward":1},{"RT":2665,"time": "2018-08-23 04:52:35pm", "schedule_type": "dynamic", "schedule_name": "1_6_vs_2_6", "is_biased_choice":true,"side_choice": "RIGHT", "trial_number":75,"observed_reward":0,"unobserved_reward":0},{"RT":2528,"time": "2018-08-23 04:52:37pm", "schedule_type": "dynamic", "schedule_name": "1_6_vs_2_6", "is_biased_choice":true,"side_choice": "RIGHT", "trial_number":76,"observed_reward":0,"unobserved_reward":1},{"RT":2695,"time": "2018-08-23 04:52:40pm", "schedule_type": "dynamic", "schedule_name": "1_6_vs_2_6", "is_biased_choice":false,"side_choice": "LEFT", "trial_number":77,"observed_reward":0,"unobserved_reward":0},{"RT":2552,"time": "2018-08-23 04:52:43pm", "schedule_type": "dynamic", "schedule_name": "1_6_vs_2_6", "is_biased_choice":true,"side_choice": "RIGHT", "trial_number":78,"observed_reward":0,"unobserved_reward":0},{"RT":2399,"time": "2018-08-23 04:52:45pm", "schedule_type": "dynamic", "schedule_name": "1_6_vs_2_6", "is_biased_choice":true,"side_choice": "RIGHT", "trial_number":79,"observed_reward":0,"unobserved_reward":0},{"RT":2658,"time": "2018-08-23 04:52:48pm", "schedule_type": "dynamic", "schedule_name": "1_6_vs_2_6", "is_biased_choice":false,"side_choice": "LEFT", "trial_number":80,"observed_reward":0,"unobserved_reward":0},{"RT":2416,"time": "2018-08-23 04:52:50pm", "schedule_type": "dynamic", "schedule_name": "1_6_vs_2_6", "is_biased_choice":true,"side_choice": "RIGHT", "trial_number":81,"observed_reward":0,"unobserved_reward":1},{"RT":3183,"time": "2018-08-23 04:52:53pm", "schedule_type": "dynamic", "schedule_name": "1_6_vs_2_6", "is_biased_choice":true,"side_choice": "RIGHT", "trial_number":82,"observed_reward":0,"unobserved_reward":0},{"RT":2409,"time": "2018-08-23 04:52:56pm", "schedule_type": "dynamic", "schedule_name": "1_6_vs_2_6", "is_biased_choice":true,"side_choice": "RIGHT", "trial_number":83,"observed_reward":0,"unobserved_reward":0},{"RT":2431,"time": "2018-08-23 04:52:58pm", "schedule_type": "dynamic", "schedule_name": "1_6_vs_2_6", "is_biased_choice":true,"side_choice": "RIGHT", "trial_number":84,"observed_reward":0,"unobserved_reward":0},{"RT":2775,"time": "2018-08-23 04:53:01pm", "schedule_type": "dynamic", "schedule_name": "1_6_vs_2_6", "is_biased_choice":true,"side_choice": "RIGHT", "trial_number":85,"observed_reward":0,"unobserved_reward":0},{"RT":2458,"time": "2018-08-23 04:53:03pm", "schedule_type": "dynamic", "schedule_name": "1_6_vs_2_6", "is_biased_choice":false,"side_choice": "LEFT", "trial_number":86,"observed_reward":0,"unobserved_reward":0},{"RT":2359,"time": "2018-08-23 04:53:06pm", "schedule_type": "dynamic", "schedule_name": "1_6_vs_2_6", "is_biased_choice":true,"side_choice": "RIGHT", "trial_number":87,"observed_reward":0,"unobserved_reward":0},{"RT":2424,"time": "2018-08-23 04:53:08pm", "schedule_type": "dynamic", "schedule_name": "1_6_vs_2_6", "is_biased_choice":true,"side_choice": "RIGHT", "trial_number":88,"observed_reward":0,"unobserved_reward":0},{"RT":2343,"time": "2018-08-23 04:53:11pm", "schedule_type": "dynamic", "schedule_name": "1_6_vs_2_6", "is_biased_choice":true,"side_choice": "RIGHT", "trial_number":89,"observed_reward":0,"unobserved_reward":1},{"RT":5537,"time": "2018-08-23 04:53:16pm", "schedule_type": "dynamic", "schedule_name": "1_6_vs_2_6", "is_biased_choice":true,"side_choice": "RIGHT", "trial_number":90,"observed_reward":0,"unobserved_reward":1},{"RT":2384,"time": "2018-08-23 04:53:18pm", "schedule_type": "dynamic", "schedule_name": "1_6_vs_2_6", "is_biased_choice":true,"side_choice": "RIGHT", "trial_number":91,"observed_reward":0,"unobserved_reward":1},{"RT":2840,"time": "2018-08-23 04:53:22pm", "schedule_type": "dynamic", "schedule_name": "1_6_vs_2_6", "is_biased_choice":false,"side_choice": "LEFT", "trial_number":92,"observed_reward":1,"unobserved_reward":0},{"RT":2568,"time": "2018-08-23 04:53:24pm", "schedule_type": "dynamic", "schedule_name": "1_6_vs_2_6", "is_biased_choice":true,"side_choice": "RIGHT", "trial_number":93,"observed_reward":0,"unobserved_reward":1},{"RT":2279,"time": "2018-08-23 04:53:26pm", "schedule_type": "dynamic", "schedule_name": "1_6_vs_2_6", "is_biased_choice":false,"side_choice": "LEFT", "trial_number":94,"observed_reward":1,"unobserved_reward":0},{"RT":2641,"time": "2018-08-23 04:53:29pm", "schedule_type": "dynamic", "schedule_name": "1_6_vs_2_6", "is_biased_choice":true,"side_choice": "RIGHT", "trial_number":95,"observed_reward":0,"unobserved_reward":1},{"RT":2248,"time": "2018-08-23 04:53:31pm", "schedule_type": "dynamic", "schedule_name": "1_6_vs_2_6", "is_biased_choice":false,"side_choice": "LEFT", "trial_number":96,"observed_reward":1,"unobserved_reward":0},{"RT":2647,"time": "2018-08-23 04:53:34pm", "schedule_type": "dynamic", "schedule_name": "1_6_vs_2_6", "is_biased_choice":false,"side_choice": "LEFT", "trial_number":97,"observed_reward":1,"unobserved_reward":0},{"RT":2328,"time": "2018-08-23 04:53:36pm", "schedule_type": "dynamic", "schedule_name": "1_6_vs_2_6", "is_biased_choice":false,"side_choice": "LEFT", "trial_number":98,"observed_reward":1,"unobserved_reward":0},{"RT":2336,"time": "2018-08-23 04:53:38pm", "schedule_type": "dynamic", "schedule_name": "1_6_vs_2_6", "is_biased_choice":false,"side_choice": "LEFT", "trial_number":99,"observed_reward":1,"unobserved_reward":0}]