trial_number, time, schedule_type, schedule_name, is_biased_choice, side_choice, RT, observed_reward, unobserved_reward, biased_reward, unbiased_reward
0,2019-01-23 01:20:38pm, dynamic, 1_6_vs_2_6, true, LEFT, 2139, 1, 0, 1, 0
1,2019-01-23 01:20:43pm, dynamic, 1_6_vs_2_6, true, LEFT, 5368, 1, 0, 1, 0
2,2019-01-23 01:20:46pm, dynamic, 1_6_vs_2_6, true, LEFT, 2496, 1, 0, 1, 0
3,2019-01-23 01:20:48pm, dynamic, 1_6_vs_2_6, true, LEFT, 2416, 0, 0, 0, 0
4,2019-01-23 01:20:51pm, dynamic, 1_6_vs_2_6, false, RIGHT, 2896, 0, 0, 0, 0
5,2019-01-23 01:20:53pm, dynamic, 1_6_vs_2_6, true, LEFT, 2400, 0, 0, 0, 0
6,2019-01-23 01:20:56pm, dynamic, 1_6_vs_2_6, true, LEFT, 2288, 0, 1, 0, 1
7,2019-01-23 01:20:58pm, dynamic, 1_6_vs_2_6, true, LEFT, 2231, 1, 0, 1, 0
8,2019-01-23 01:21:00pm, dynamic, 1_6_vs_2_6, true, LEFT, 2281, 1, 0, 1, 0
9,2019-01-23 01:21:03pm, dynamic, 1_6_vs_2_6, true, LEFT, 2472, 1, 0, 1, 0
10,2019-01-23 01:21:05pm, dynamic, 1_6_vs_2_6, true, LEFT, 2216, 0, 0, 0, 0
11,2019-01-23 01:21:08pm, dynamic, 1_6_vs_2_6, true, LEFT, 3136, 0, 0, 0, 0
12,2019-01-23 01:21:10pm, dynamic, 1_6_vs_2_6, true, LEFT, 2240, 1, 0, 1, 0
13,2019-01-23 01:21:13pm, dynamic, 1_6_vs_2_6, true, LEFT, 2192, 0, 0, 0, 0
14,2019-01-23 01:21:15pm, dynamic, 1_6_vs_2_6, true, LEFT, 2295, 1, 0, 1, 0
15,2019-01-23 01:21:17pm, dynamic, 1_6_vs_2_6, true, LEFT, 2313, 0, 0, 0, 0
16,2019-01-23 01:21:20pm, dynamic, 1_6_vs_2_6, true, LEFT, 2504, 1, 0, 1, 0
17,2019-01-23 01:21:22pm, dynamic, 1_6_vs_2_6, true, LEFT, 2281, 1, 1, 1, 1
18,2019-01-23 01:21:24pm, dynamic, 1_6_vs_2_6, true, LEFT, 2551, 0, 0, 0, 0
19,2019-01-23 01:21:27pm, dynamic, 1_6_vs_2_6, true, LEFT, 2553, 0, 1, 0, 1
20,2019-01-23 01:21:29pm, dynamic, 1_6_vs_2_6, true, LEFT, 2254, 0, 0, 0, 0
21,2019-01-23 01:21:32pm, dynamic, 1_6_vs_2_6, true, LEFT, 2297, 0, 1, 0, 1
22,2019-01-23 01:21:34pm, dynamic, 1_6_vs_2_6, true, LEFT, 2344, 0, 0, 0, 0
23,2019-01-23 01:21:36pm, dynamic, 1_6_vs_2_6, true, LEFT, 2264, 0, 0, 0, 0
24,2019-01-23 01:21:39pm, dynamic, 1_6_vs_2_6, true, LEFT, 2456, 0, 1, 0, 1
25,2019-01-23 01:21:52pm, dynamic, 1_6_vs_2_6, true, LEFT, 12864, 0, 0, 0, 0
26,2019-01-23 01:21:54pm, dynamic, 1_6_vs_2_6, true, LEFT, 2472, 0, 0, 0, 0
27,2019-01-23 01:21:56pm, dynamic, 1_6_vs_2_6, true, LEFT, 2408, 1, 0, 1, 0
28,2019-01-23 01:21:59pm, dynamic, 1_6_vs_2_6, true, LEFT, 2296, 0, 0, 0, 0
29,2019-01-23 01:22:01pm, dynamic, 1_6_vs_2_6, true, LEFT, 2280, 0, 0, 0, 0
30,2019-01-23 01:22:04pm, dynamic, 1_6_vs_2_6, true, LEFT, 2952, 0, 0, 0, 0
31,2019-01-23 01:22:06pm, dynamic, 1_6_vs_2_6, true, LEFT, 2528, 0, 1, 0, 1
32,2019-01-23 01:22:09pm, dynamic, 1_6_vs_2_6, false, RIGHT, 2304, 0, 1, 1, 0
33,2019-01-23 01:22:11pm, dynamic, 1_6_vs_2_6, false, RIGHT, 2465, 0, 0, 0, 0
34,2019-01-23 01:22:14pm, dynamic, 1_6_vs_2_6, true, LEFT, 2711, 0, 0, 0, 0
35,2019-01-23 01:22:16pm, dynamic, 1_6_vs_2_6, true, LEFT, 2368, 0, 0, 0, 0
36,2019-01-23 01:22:19pm, dynamic, 1_6_vs_2_6, true, LEFT, 2232, 1, 0, 1, 0
37,2019-01-23 01:22:21pm, dynamic, 1_6_vs_2_6, true, LEFT, 2232, 0, 0, 0, 0
38,2019-01-23 01:22:23pm, dynamic, 1_6_vs_2_6, true, LEFT, 2376, 0, 0, 0, 0
39,2019-01-23 01:22:25pm, dynamic, 1_6_vs_2_6, true, LEFT, 2296, 0, 0, 0, 0
40,2019-01-23 01:22:28pm, dynamic, 1_6_vs_2_6, true, LEFT, 2168, 0, 0, 0, 0
41,2019-01-23 01:22:30pm, dynamic, 1_6_vs_2_6, true, LEFT, 2184, 0, 0, 0, 0
42,2019-01-23 01:22:32pm, dynamic, 1_6_vs_2_6, true, LEFT, 2425, 0, 0, 0, 0
43,2019-01-23 01:22:34pm, dynamic, 1_6_vs_2_6, true, LEFT, 2188, 1, 0, 1, 0
44,2019-01-23 01:22:37pm, dynamic, 1_6_vs_2_6, true, LEFT, 2339, 1, 0, 1, 0
45,2019-01-23 01:22:39pm, dynamic, 1_6_vs_2_6, true, LEFT, 2184, 0, 0, 0, 0
46,2019-01-23 01:22:41pm, dynamic, 1_6_vs_2_6, true, LEFT, 2184, 0, 1, 0, 1
47,2019-01-23 01:22:43pm, dynamic, 1_6_vs_2_6, true, LEFT, 2224, 0, 0, 0, 0
48,2019-01-23 01:22:46pm, dynamic, 1_6_vs_2_6, true, LEFT, 2225, 0, 0, 0, 0
49,2019-01-23 01:22:48pm, dynamic, 1_6_vs_2_6, true, LEFT, 2216, 0, 0, 0, 0
50,2019-01-23 01:22:50pm, dynamic, 1_6_vs_2_6, true, LEFT, 2191, 0, 0, 0, 0
51,2019-01-23 01:22:52pm, dynamic, 1_6_vs_2_6, true, LEFT, 2216, 0, 0, 0, 0
52,2019-01-23 01:22:54pm, dynamic, 1_6_vs_2_6, false, RIGHT, 2273, 1, 1, 1, 1
53,2019-01-23 01:22:57pm, dynamic, 1_6_vs_2_6, false, RIGHT, 2223, 0, 0, 0, 0
54,2019-01-23 01:22:59pm, dynamic, 1_6_vs_2_6, false, RIGHT, 2224, 0, 0, 0, 0
55,2019-01-23 01:23:01pm, dynamic, 1_6_vs_2_6, true, LEFT, 2185, 0, 0, 0, 0
56,2019-01-23 01:23:03pm, dynamic, 1_6_vs_2_6, true, LEFT, 2198, 1, 0, 1, 0
57,2019-01-23 01:23:05pm, dynamic, 1_6_vs_2_6, true, LEFT, 2225, 0, 0, 0, 0
58,2019-01-23 01:23:08pm, dynamic, 1_6_vs_2_6, true, LEFT, 2176, 0, 1, 0, 1
59,2019-01-23 01:23:10pm, dynamic, 1_6_vs_2_6, true, LEFT, 2256, 1, 1, 1, 1
60,2019-01-23 01:23:12pm, dynamic, 1_6_vs_2_6, true, LEFT, 2392, 0, 0, 0, 0
61,2019-01-23 01:23:14pm, dynamic, 1_6_vs_2_6, true, LEFT, 2127, 1, 0, 1, 0
62,2019-01-23 01:23:17pm, dynamic, 1_6_vs_2_6, true, LEFT, 2305, 1, 0, 1, 0
63,2019-01-23 01:23:19pm, dynamic, 1_6_vs_2_6, true, LEFT, 2272, 0, 0, 0, 0
64,2019-01-23 01:23:21pm, dynamic, 1_6_vs_2_6, true, LEFT, 2240, 0, 0, 0, 0
65,2019-01-23 01:23:24pm, dynamic, 1_6_vs_2_6, true, LEFT, 2456, 1, 0, 1, 0
66,2019-01-23 01:23:26pm, dynamic, 1_6_vs_2_6, true, LEFT, 2248, 0, 0, 0, 0
67,2019-01-23 01:23:29pm, dynamic, 1_6_vs_2_6, true, LEFT, 2552, 1, 0, 1, 0
68,2019-01-23 01:23:31pm, dynamic, 1_6_vs_2_6, true, LEFT, 2200, 0, 0, 0, 0
69,2019-01-23 01:23:33pm, dynamic, 1_6_vs_2_6, true, LEFT, 2320, 1, 1, 1, 1
70,2019-01-23 01:23:35pm, dynamic, 1_6_vs_2_6, true, LEFT, 2232, 0, 0, 0, 0
71,2019-01-23 01:23:38pm, dynamic, 1_6_vs_2_6, true, LEFT, 2584, 1, 0, 1, 0
72,2019-01-23 01:23:40pm, dynamic, 1_6_vs_2_6, true, LEFT, 2392, 0, 0, 0, 0
73,2019-01-23 01:23:42pm, dynamic, 1_6_vs_2_6, true, LEFT, 2184, 0, 0, 0, 0
74,2019-01-23 01:23:45pm, dynamic, 1_6_vs_2_6, true, LEFT, 2416, 1, 0, 1, 0
75,2019-01-23 01:23:47pm, dynamic, 1_6_vs_2_6, true, LEFT, 2184, 0, 0, 0, 0
76,2019-01-23 01:23:49pm, dynamic, 1_6_vs_2_6, true, LEFT, 2248, 0, 1, 0, 1
77,2019-01-23 01:23:51pm, dynamic, 1_6_vs_2_6, true, LEFT, 2208, 1, 0, 1, 0
78,2019-01-23 01:23:54pm, dynamic, 1_6_vs_2_6, true, LEFT, 2216, 0, 1, 0, 1
79,2019-01-23 01:23:56pm, dynamic, 1_6_vs_2_6, true, LEFT, 2440, 1, 0, 1, 0
80,2019-01-23 01:23:59pm, dynamic, 1_6_vs_2_6, true, LEFT, 2528, 0, 1, 0, 1
81,2019-01-23 01:24:01pm, dynamic, 1_6_vs_2_6, true, LEFT, 2336, 0, 0, 0, 0
82,2019-01-23 01:24:03pm, dynamic, 1_6_vs_2_6, true, LEFT, 2240, 0, 0, 0, 0
83,2019-01-23 01:24:06pm, dynamic, 1_6_vs_2_6, true, LEFT, 2432, 0, 0, 0, 0
84,2019-01-23 01:24:08pm, dynamic, 1_6_vs_2_6, true, LEFT, 2320, 1, 0, 1, 0
85,2019-01-23 01:24:10pm, dynamic, 1_6_vs_2_6, true, LEFT, 2247, 0, 0, 0, 0
86,2019-01-23 01:24:13pm, dynamic, 1_6_vs_2_6, true, LEFT, 2297, 0, 0, 0, 0
87,2019-01-23 01:24:15pm, dynamic, 1_6_vs_2_6, true, LEFT, 2432, 1, 0, 1, 0
88,2019-01-23 01:24:17pm, dynamic, 1_6_vs_2_6, true, LEFT, 2319, 1, 0, 1, 0
89,2019-01-23 01:24:20pm, dynamic, 1_6_vs_2_6, true, LEFT, 2400, 1, 0, 1, 0
90,2019-01-23 01:24:22pm, dynamic, 1_6_vs_2_6, true, LEFT, 2409, 0, 0, 0, 0
91,2019-01-23 01:24:24pm, dynamic, 1_6_vs_2_6, true, LEFT, 2240, 1, 0, 1, 0
92,2019-01-23 01:24:27pm, dynamic, 1_6_vs_2_6, true, LEFT, 2375, 0, 0, 0, 0
93,2019-01-23 01:24:29pm, dynamic, 1_6_vs_2_6, true, LEFT, 2289, 0, 0, 0, 0
94,2019-01-23 01:24:31pm, dynamic, 1_6_vs_2_6, true, LEFT, 2352, 0, 1, 0, 1
95,2019-01-23 01:24:34pm, dynamic, 1_6_vs_2_6, true, LEFT, 2392, 1, 0, 1, 0
96,2019-01-23 01:24:36pm, dynamic, 1_6_vs_2_6, true, LEFT, 2224, 0, 1, 0, 1
97,2019-01-23 01:24:39pm, dynamic, 1_6_vs_2_6, true, LEFT, 3112, 0, 0, 0, 0
98,2019-01-23 01:24:41pm, dynamic, 1_6_vs_2_6, true, LEFT, 2183, 0, 0, 0, 0
99,2019-01-23 01:24:44pm, dynamic, 1_6_vs_2_6, true, LEFT, 2425, 0, 0, 0, 0
