trial_number, time, schedule_type, schedule_name, is_biased_choice, side_choice, RT, observed_reward, unobserved_reward, biased_reward, unbiased_reward
0,2019-01-24 11:33:46am, dynamic, 1_6_vs_2_6, true, LEFT, 7120, 0, 0, 0, 0
1,2019-01-24 11:33:57am, dynamic, 1_6_vs_2_6, true, LEFT, 10676, 0, 0, 0, 0
2,2019-01-24 11:34:00am, dynamic, 1_6_vs_2_6, false, RIGHT, 4271, 1, 0, 0, 1
3,2019-01-24 11:34:05am, dynamic, 1_6_vs_2_6, true, LEFT, 4489, 1, 0, 1, 0
4,2019-01-24 11:34:09am, dynamic, 1_6_vs_2_6, false, RIGHT, 4432, 0, 1, 1, 0
5,2019-01-24 11:34:15am, dynamic, 1_6_vs_2_6, true, LEFT, 5231, 0, 0, 0, 0
6,2019-01-24 11:37:01am, dynamic, 1_6_vs_2_6, false, RIGHT, 166043, 0, 0, 0, 0
7,2019-01-24 11:37:07am, dynamic, 1_6_vs_2_6, true, LEFT, 6207, 1, 0, 1, 0
8,2019-01-24 11:37:10am, dynamic, 1_6_vs_2_6, false, RIGHT, 2975, 1, 0, 0, 1
9,2019-01-24 11:37:14am, dynamic, 1_6_vs_2_6, true, LEFT, 3273, 1, 0, 1, 0
10,2019-01-24 11:37:16am, dynamic, 1_6_vs_2_6, false, RIGHT, 3080, 0, 1, 1, 0
11,2019-01-24 11:37:19am, dynamic, 1_6_vs_2_6, false, RIGHT, 3120, 0, 0, 0, 0
12,2019-01-24 11:37:24am, dynamic, 1_6_vs_2_6, true, LEFT, 4600, 0, 0, 0, 0
13,2019-01-24 11:37:31am, dynamic, 1_6_vs_2_6, true, LEFT, 7055, 0, 0, 0, 0
14,2019-01-24 11:39:04am, dynamic, 1_6_vs_2_6, false, RIGHT, 92273, 1, 0, 0, 1
15,2019-01-24 11:39:11am, dynamic, 1_6_vs_2_6, true, LEFT, 7920, 0, 1, 0, 1
16,2019-01-24 11:39:16am, dynamic, 1_6_vs_2_6, true, LEFT, 4489, 0, 0, 0, 0
17,2019-01-24 11:39:23am, dynamic, 1_6_vs_2_6, false, RIGHT, 6959, 0, 1, 1, 0
18,2019-01-24 11:39:27am, dynamic, 1_6_vs_2_6, true, LEFT, 3640, 1, 0, 1, 0
19,2019-01-24 11:39:36am, dynamic, 1_6_vs_2_6, false, RIGHT, 10111, 0, 1, 1, 0
20,2019-01-24 11:39:42am, dynamic, 1_6_vs_2_6, true, LEFT, 5593, 0, 0, 0, 0
21,2019-01-24 11:40:21am, dynamic, 1_6_vs_2_6, false, RIGHT, 38408, 1, 0, 0, 1
22,2019-01-24 11:40:32am, dynamic, 1_6_vs_2_6, false, RIGHT, 11800, 0, 1, 1, 0
23,2019-01-24 11:40:35am, dynamic, 1_6_vs_2_6, true, LEFT, 3136, 1, 0, 1, 0
24,2019-01-24 11:40:39am, dynamic, 1_6_vs_2_6, false, RIGHT, 3520, 0, 1, 1, 0
25,2019-01-24 11:40:45am, dynamic, 1_6_vs_2_6, true, LEFT, 6047, 0, 0, 0, 0
26,2019-01-24 11:40:49am, dynamic, 1_6_vs_2_6, true, LEFT, 3465, 0, 1, 0, 1
27,2019-01-24 11:40:53am, dynamic, 1_6_vs_2_6, false, RIGHT, 4207, 0, 0, 0, 0
28,2019-01-24 11:40:56am, dynamic, 1_6_vs_2_6, true, LEFT, 3184, 0, 0, 0, 0
29,2019-01-24 11:40:59am, dynamic, 1_6_vs_2_6, true, LEFT, 2896, 1, 0, 1, 0
30,2019-01-24 11:41:04am, dynamic, 1_6_vs_2_6, true, LEFT, 5000, 1, 0, 1, 0
31,2019-01-24 11:41:09am, dynamic, 1_6_vs_2_6, false, RIGHT, 5791, 0, 1, 1, 0
32,2019-01-24 11:41:15am, dynamic, 1_6_vs_2_6, false, RIGHT, 5128, 0, 1, 1, 0
33,2019-01-24 11:41:23am, dynamic, 1_6_vs_2_6, true, LEFT, 8308, 1, 0, 1, 0
34,2019-01-24 11:41:26am, dynamic, 1_6_vs_2_6, false, RIGHT, 3016, 0, 1, 1, 0
35,2019-01-24 11:41:30am, dynamic, 1_6_vs_2_6, true, LEFT, 4032, 0, 0, 0, 0
36,2019-01-24 11:41:37am, dynamic, 1_6_vs_2_6, false, RIGHT, 7015, 0, 0, 0, 0
37,2019-01-24 11:41:40am, dynamic, 1_6_vs_2_6, true, LEFT, 2704, 1, 0, 1, 0
38,2019-01-24 11:41:43am, dynamic, 1_6_vs_2_6, true, LEFT, 3408, 0, 0, 0, 0
39,2019-01-24 11:41:47am, dynamic, 1_6_vs_2_6, false, RIGHT, 3376, 1, 0, 0, 1
40,2019-01-24 11:41:50am, dynamic, 1_6_vs_2_6, true, LEFT, 3560, 0, 0, 0, 0
41,2019-01-24 11:41:53am, dynamic, 1_6_vs_2_6, false, RIGHT, 2752, 1, 0, 0, 1
42,2019-01-24 11:41:56am, dynamic, 1_6_vs_2_6, true, LEFT, 3056, 0, 0, 0, 0
43,2019-01-24 11:41:59am, dynamic, 1_6_vs_2_6, false, RIGHT, 2991, 0, 0, 0, 0
44,2019-01-24 11:42:02am, dynamic, 1_6_vs_2_6, true, LEFT, 2841, 1, 1, 1, 1
45,2019-01-24 11:42:05am, dynamic, 1_6_vs_2_6, false, RIGHT, 3247, 0, 1, 1, 0
46,2019-01-24 11:42:08am, dynamic, 1_6_vs_2_6, true, LEFT, 3056, 0, 0, 0, 0
47,2019-01-24 11:42:11am, dynamic, 1_6_vs_2_6, false, RIGHT, 3376, 0, 0, 0, 0
48,2019-01-24 11:42:15am, dynamic, 1_6_vs_2_6, true, LEFT, 3352, 0, 0, 0, 0
49,2019-01-24 11:42:18am, dynamic, 1_6_vs_2_6, false, RIGHT, 2840, 0, 0, 0, 0
50,2019-01-24 11:42:21am, dynamic, 1_6_vs_2_6, false, RIGHT, 3240, 0, 0, 0, 0
51,2019-01-24 11:42:24am, dynamic, 1_6_vs_2_6, true, LEFT, 3045, 0, 0, 0, 0
52,2019-01-24 11:42:27am, dynamic, 1_6_vs_2_6, false, RIGHT, 3064, 0, 0, 0, 0
53,2019-01-24 11:42:31am, dynamic, 1_6_vs_2_6, true, LEFT, 3584, 1, 0, 1, 0
54,2019-01-24 11:42:34am, dynamic, 1_6_vs_2_6, false, RIGHT, 3474, 0, 1, 1, 0
55,2019-01-24 11:42:37am, dynamic, 1_6_vs_2_6, true, LEFT, 2838, 0, 1, 0, 1
56,2019-01-24 11:42:40am, dynamic, 1_6_vs_2_6, false, RIGHT, 3064, 0, 1, 1, 0
57,2019-01-24 11:43:04am, dynamic, 1_6_vs_2_6, false, RIGHT, 23831, 0, 0, 0, 0
58,2019-01-24 11:43:07am, dynamic, 1_6_vs_2_6, true, LEFT, 3247, 0, 0, 0, 0
59,2019-01-24 11:43:10am, dynamic, 1_6_vs_2_6, false, RIGHT, 2720, 1, 1, 1, 1
60,2019-01-24 11:43:25am, dynamic, 1_6_vs_2_6, false, RIGHT, 14693, 0, 0, 0, 0
61,2019-01-24 11:43:28am, dynamic, 1_6_vs_2_6, true, LEFT, 3828, 0, 0, 0, 0
62,2019-01-24 11:43:31am, dynamic, 1_6_vs_2_6, false, RIGHT, 2876, 0, 0, 0, 0
63,2019-01-24 11:43:35am, dynamic, 1_6_vs_2_6, false, RIGHT, 3344, 0, 0, 0, 0
64,2019-01-24 11:43:38am, dynamic, 1_6_vs_2_6, false, RIGHT, 3280, 0, 0, 0, 0
65,2019-01-24 11:43:41am, dynamic, 1_6_vs_2_6, true, LEFT, 3144, 1, 0, 1, 0
66,2019-01-24 11:43:45am, dynamic, 1_6_vs_2_6, false, RIGHT, 3375, 0, 0, 0, 0
67,2019-01-24 11:43:47am, dynamic, 1_6_vs_2_6, true, LEFT, 2705, 1, 0, 1, 0
68,2019-01-24 11:43:50am, dynamic, 1_6_vs_2_6, true, LEFT, 2832, 0, 0, 0, 0
69,2019-01-24 11:43:53am, dynamic, 1_6_vs_2_6, false, RIGHT, 2905, 0, 1, 1, 0
70,2019-01-24 11:43:56am, dynamic, 1_6_vs_2_6, true, LEFT, 2926, 0, 1, 0, 1
71,2019-01-24 11:43:58am, dynamic, 1_6_vs_2_6, false, RIGHT, 2744, 0, 0, 0, 0
72,2019-01-24 11:44:02am, dynamic, 1_6_vs_2_6, true, LEFT, 3727, 1, 0, 1, 0
73,2019-01-24 11:44:05am, dynamic, 1_6_vs_2_6, false, RIGHT, 2913, 0, 0, 0, 0
74,2019-01-24 11:44:08am, dynamic, 1_6_vs_2_6, true, LEFT, 2815, 0, 0, 0, 0
75,2019-01-24 11:44:11am, dynamic, 1_6_vs_2_6, false, RIGHT, 2824, 1, 0, 0, 1
76,2019-01-24 11:44:13am, dynamic, 1_6_vs_2_6, true, LEFT, 2817, 0, 1, 0, 1
77,2019-01-24 11:44:17am, dynamic, 1_6_vs_2_6, false, RIGHT, 3367, 0, 1, 1, 0
78,2019-01-24 11:44:20am, dynamic, 1_6_vs_2_6, true, LEFT, 2816, 0, 0, 0, 0
79,2019-01-24 11:44:25am, dynamic, 1_6_vs_2_6, false, RIGHT, 5279, 0, 1, 1, 0
80,2019-01-24 11:44:29am, dynamic, 1_6_vs_2_6, true, LEFT, 3552, 0, 0, 0, 0
81,2019-01-24 11:44:32am, dynamic, 1_6_vs_2_6, false, RIGHT, 3464, 0, 0, 0, 0
82,2019-01-24 11:44:36am, dynamic, 1_6_vs_2_6, false, RIGHT, 3320, 1, 0, 0, 1
83,2019-01-24 11:44:38am, dynamic, 1_6_vs_2_6, false, RIGHT, 3232, 0, 0, 0, 0
84,2019-01-24 11:44:42am, dynamic, 1_6_vs_2_6, false, RIGHT, 3199, 0, 0, 0, 0
85,2019-01-24 11:44:44am, dynamic, 1_6_vs_2_6, true, LEFT, 2833, 0, 1, 0, 1
86,2019-01-24 11:44:47am, dynamic, 1_6_vs_2_6, false, RIGHT, 2712, 0, 1, 1, 0
87,2019-01-24 11:44:50am, dynamic, 1_6_vs_2_6, false, RIGHT, 2736, 0, 0, 0, 0
88,2019-01-24 11:44:53am, dynamic, 1_6_vs_2_6, true, LEFT, 3095, 0, 0, 0, 0
89,2019-01-24 11:44:56am, dynamic, 1_6_vs_2_6, false, RIGHT, 3072, 0, 1, 1, 0
90,2019-01-24 11:44:59am, dynamic, 1_6_vs_2_6, true, LEFT, 2872, 0, 0, 0, 0
91,2019-01-24 11:45:02am, dynamic, 1_6_vs_2_6, false, RIGHT, 2624, 0, 0, 0, 0
92,2019-01-24 11:45:04am, dynamic, 1_6_vs_2_6, true, LEFT, 2728, 0, 0, 0, 0
93,2019-01-24 11:45:07am, dynamic, 1_6_vs_2_6, false, RIGHT, 2912, 0, 0, 0, 0
94,2019-01-24 11:45:10am, dynamic, 1_6_vs_2_6, true, LEFT, 2911, 0, 0, 0, 0
95,2019-01-24 11:45:13am, dynamic, 1_6_vs_2_6, false, RIGHT, 2953, 0, 1, 1, 0
96,2019-01-24 11:45:17am, dynamic, 1_6_vs_2_6, true, LEFT, 3152, 0, 0, 0, 0
97,2019-01-24 11:45:19am, dynamic, 1_6_vs_2_6, false, RIGHT, 3104, 0, 0, 0, 0
98,2019-01-24 11:45:22am, dynamic, 1_6_vs_2_6, false, RIGHT, 3071, 0, 0, 0, 0
99,2019-01-24 11:45:25am, dynamic, 1_6_vs_2_6, false, RIGHT, 3062, 0, 0, 0, 0
