trial_number, time, schedule_type, schedule_name, is_biased_choice, side_choice, RT, observed_reward, unobserved_reward, biased_reward, unbiased_reward
0,2019-01-23 01:29:32pm, dynamic, 1_6_vs_2_6, false, LEFT, 10371, 0, 0, 0, 0
1,2019-01-23 01:29:37pm, dynamic, 1_6_vs_2_6, true, RIGHT, 4736, 1, 0, 1, 0
2,2019-01-23 01:29:40pm, dynamic, 1_6_vs_2_6, true, RIGHT, 3157, 0, 0, 0, 0
3,2019-01-23 01:29:43pm, dynamic, 1_6_vs_2_6, true, RIGHT, 2970, 0, 0, 0, 0
4,2019-01-23 01:29:46pm, dynamic, 1_6_vs_2_6, false, LEFT, 2718, 0, 1, 1, 0
5,2019-01-23 01:29:48pm, dynamic, 1_6_vs_2_6, false, LEFT, 2719, 0, 1, 1, 0
6,2019-01-23 01:29:51pm, dynamic, 1_6_vs_2_6, true, RIGHT, 2993, 0, 0, 0, 0
7,2019-01-23 01:29:54pm, dynamic, 1_6_vs_2_6, true, RIGHT, 3026, 0, 1, 0, 1
8,2019-01-23 01:29:57pm, dynamic, 1_6_vs_2_6, false, LEFT, 2694, 0, 0, 0, 0
9,2019-01-23 01:30:00pm, dynamic, 1_6_vs_2_6, true, RIGHT, 2868, 0, 0, 0, 0
10,2019-01-23 01:30:03pm, dynamic, 1_6_vs_2_6, false, LEFT, 3301, 0, 0, 0, 0
11,2019-01-23 01:30:06pm, dynamic, 1_6_vs_2_6, false, LEFT, 2608, 0, 1, 1, 0
12,2019-01-23 01:30:08pm, dynamic, 1_6_vs_2_6, false, LEFT, 2393, 0, 0, 0, 0
13,2019-01-23 01:30:11pm, dynamic, 1_6_vs_2_6, true, RIGHT, 2523, 1, 0, 1, 0
14,2019-01-23 01:30:13pm, dynamic, 1_6_vs_2_6, true, RIGHT, 2514, 0, 0, 0, 0
15,2019-01-23 01:30:16pm, dynamic, 1_6_vs_2_6, false, LEFT, 2481, 1, 0, 0, 1
16,2019-01-23 01:30:19pm, dynamic, 1_6_vs_2_6, false, LEFT, 2969, 0, 0, 0, 0
17,2019-01-23 01:30:21pm, dynamic, 1_6_vs_2_6, true, RIGHT, 2371, 0, 0, 0, 0
18,2019-01-23 01:30:24pm, dynamic, 1_6_vs_2_6, true, RIGHT, 2405, 0, 1, 0, 1
19,2019-01-23 01:30:26pm, dynamic, 1_6_vs_2_6, false, LEFT, 2434, 0, 0, 0, 0
20,2019-01-23 01:30:28pm, dynamic, 1_6_vs_2_6, false, LEFT, 2371, 0, 0, 0, 0
21,2019-01-23 01:30:31pm, dynamic, 1_6_vs_2_6, false, LEFT, 2410, 1, 1, 1, 1
22,2019-01-23 01:30:33pm, dynamic, 1_6_vs_2_6, false, LEFT, 2610, 0, 0, 0, 0
23,2019-01-23 01:30:36pm, dynamic, 1_6_vs_2_6, false, LEFT, 2427, 0, 0, 0, 0
24,2019-01-23 01:30:38pm, dynamic, 1_6_vs_2_6, false, LEFT, 2519, 1, 0, 0, 1
25,2019-01-23 01:30:41pm, dynamic, 1_6_vs_2_6, false, LEFT, 2805, 0, 0, 0, 0
26,2019-01-23 01:30:44pm, dynamic, 1_6_vs_2_6, false, LEFT, 3049, 0, 0, 0, 0
27,2019-01-23 01:30:47pm, dynamic, 1_6_vs_2_6, false, LEFT, 2496, 0, 0, 0, 0
28,2019-01-23 01:30:49pm, dynamic, 1_6_vs_2_6, false, LEFT, 2466, 0, 0, 0, 0
29,2019-01-23 01:30:52pm, dynamic, 1_6_vs_2_6, false, LEFT, 2374, 0, 0, 0, 0
30,2019-01-23 01:30:54pm, dynamic, 1_6_vs_2_6, false, LEFT, 2354, 1, 0, 0, 1
31,2019-01-23 01:30:57pm, dynamic, 1_6_vs_2_6, false, LEFT, 2881, 0, 0, 0, 0
32,2019-01-23 01:30:59pm, dynamic, 1_6_vs_2_6, false, LEFT, 2374, 0, 0, 0, 0
33,2019-01-23 01:31:01pm, dynamic, 1_6_vs_2_6, false, LEFT, 2324, 0, 0, 0, 0
34,2019-01-23 01:31:04pm, dynamic, 1_6_vs_2_6, false, LEFT, 2710, 0, 1, 1, 0
35,2019-01-23 01:31:07pm, dynamic, 1_6_vs_2_6, false, LEFT, 2498, 0, 0, 0, 0
36,2019-01-23 01:31:09pm, dynamic, 1_6_vs_2_6, false, LEFT, 2332, 1, 0, 0, 1
37,2019-01-23 01:31:11pm, dynamic, 1_6_vs_2_6, true, RIGHT, 2393, 0, 0, 0, 0
38,2019-01-23 01:31:14pm, dynamic, 1_6_vs_2_6, true, RIGHT, 2341, 0, 0, 0, 0
39,2019-01-23 01:31:16pm, dynamic, 1_6_vs_2_6, true, RIGHT, 2323, 1, 0, 1, 0
40,2019-01-23 01:31:18pm, dynamic, 1_6_vs_2_6, false, LEFT, 2402, 0, 1, 1, 0
41,2019-01-23 01:31:21pm, dynamic, 1_6_vs_2_6, false, LEFT, 2609, 0, 1, 1, 0
42,2019-01-23 01:31:23pm, dynamic, 1_6_vs_2_6, false, LEFT, 2230, 0, 1, 1, 0
43,2019-01-23 01:31:26pm, dynamic, 1_6_vs_2_6, true, RIGHT, 2222, 0, 0, 0, 0
44,2019-01-23 01:31:28pm, dynamic, 1_6_vs_2_6, true, RIGHT, 2211, 0, 0, 0, 0
45,2019-01-23 01:31:30pm, dynamic, 1_6_vs_2_6, true, RIGHT, 2482, 1, 0, 1, 0
46,2019-01-23 01:31:33pm, dynamic, 1_6_vs_2_6, true, RIGHT, 2836, 0, 1, 0, 1
47,2019-01-23 01:31:35pm, dynamic, 1_6_vs_2_6, true, RIGHT, 2382, 1, 0, 1, 0
48,2019-01-23 01:31:38pm, dynamic, 1_6_vs_2_6, true, RIGHT, 2331, 0, 0, 0, 0
49,2019-01-23 01:31:40pm, dynamic, 1_6_vs_2_6, true, RIGHT, 2331, 0, 0, 0, 0
50,2019-01-23 01:31:42pm, dynamic, 1_6_vs_2_6, true, RIGHT, 2346, 1, 0, 1, 0
51,2019-01-23 01:31:45pm, dynamic, 1_6_vs_2_6, true, RIGHT, 2315, 0, 0, 0, 0
52,2019-01-23 01:31:47pm, dynamic, 1_6_vs_2_6, true, RIGHT, 2279, 0, 0, 0, 0
53,2019-01-23 01:31:49pm, dynamic, 1_6_vs_2_6, true, RIGHT, 2255, 1, 0, 1, 0
54,2019-01-23 01:31:52pm, dynamic, 1_6_vs_2_6, true, RIGHT, 2273, 1, 1, 1, 1
55,2019-01-23 01:31:54pm, dynamic, 1_6_vs_2_6, true, RIGHT, 2284, 1, 0, 1, 0
56,2019-01-23 01:31:56pm, dynamic, 1_6_vs_2_6, true, RIGHT, 2254, 0, 0, 0, 0
57,2019-01-23 01:31:58pm, dynamic, 1_6_vs_2_6, true, RIGHT, 2283, 0, 0, 0, 0
58,2019-01-23 01:32:02pm, dynamic, 1_6_vs_2_6, true, RIGHT, 3074, 0, 0, 0, 0
59,2019-01-23 01:32:04pm, dynamic, 1_6_vs_2_6, true, RIGHT, 2520, 1, 1, 1, 1
60,2019-01-23 01:32:06pm, dynamic, 1_6_vs_2_6, true, RIGHT, 2340, 1, 0, 1, 0
61,2019-01-23 01:32:09pm, dynamic, 1_6_vs_2_6, true, RIGHT, 2267, 0, 0, 0, 0
62,2019-01-23 01:32:11pm, dynamic, 1_6_vs_2_6, true, RIGHT, 2239, 0, 0, 0, 0
63,2019-01-23 01:32:13pm, dynamic, 1_6_vs_2_6, true, RIGHT, 2237, 0, 0, 0, 0
64,2019-01-23 01:32:15pm, dynamic, 1_6_vs_2_6, true, RIGHT, 2245, 0, 0, 0, 0
65,2019-01-23 01:32:18pm, dynamic, 1_6_vs_2_6, true, RIGHT, 2228, 0, 0, 0, 0
66,2019-01-23 01:32:20pm, dynamic, 1_6_vs_2_6, true, RIGHT, 2237, 0, 1, 0, 1
67,2019-01-23 01:32:23pm, dynamic, 1_6_vs_2_6, false, LEFT, 2757, 1, 0, 0, 1
68,2019-01-23 01:32:25pm, dynamic, 1_6_vs_2_6, true, RIGHT, 2363, 0, 0, 0, 0
69,2019-01-23 01:32:27pm, dynamic, 1_6_vs_2_6, false, LEFT, 2253, 0, 1, 1, 0
70,2019-01-23 01:32:29pm, dynamic, 1_6_vs_2_6, false, LEFT, 2237, 0, 1, 1, 0
71,2019-01-23 01:32:32pm, dynamic, 1_6_vs_2_6, false, LEFT, 2260, 0, 0, 0, 0
72,2019-01-23 01:32:34pm, dynamic, 1_6_vs_2_6, false, LEFT, 2316, 0, 1, 1, 0
73,2019-01-23 01:32:37pm, dynamic, 1_6_vs_2_6, false, LEFT, 2772, 1, 0, 0, 1
74,2019-01-23 01:32:40pm, dynamic, 1_6_vs_2_6, false, LEFT, 3112, 0, 0, 0, 0
75,2019-01-23 01:32:42pm, dynamic, 1_6_vs_2_6, false, LEFT, 2324, 1, 0, 0, 1
76,2019-01-23 01:32:45pm, dynamic, 1_6_vs_2_6, false, LEFT, 2388, 0, 1, 1, 0
77,2019-01-23 01:32:47pm, dynamic, 1_6_vs_2_6, false, LEFT, 2284, 0, 0, 0, 0
78,2019-01-23 01:32:49pm, dynamic, 1_6_vs_2_6, false, LEFT, 2223, 0, 1, 1, 0
79,2019-01-23 01:32:51pm, dynamic, 1_6_vs_2_6, false, LEFT, 2275, 1, 0, 0, 1
80,2019-01-23 01:32:54pm, dynamic, 1_6_vs_2_6, true, RIGHT, 2332, 0, 0, 0, 0
81,2019-01-23 01:32:56pm, dynamic, 1_6_vs_2_6, true, RIGHT, 2244, 0, 0, 0, 0
82,2019-01-23 01:32:58pm, dynamic, 1_6_vs_2_6, true, RIGHT, 2259, 0, 0, 0, 0
83,2019-01-23 01:33:01pm, dynamic, 1_6_vs_2_6, true, RIGHT, 2326, 0, 0, 0, 0
84,2019-01-23 01:33:03pm, dynamic, 1_6_vs_2_6, true, RIGHT, 2238, 1, 0, 1, 0
85,2019-01-23 01:33:05pm, dynamic, 1_6_vs_2_6, false, LEFT, 2283, 1, 1, 1, 1
86,2019-01-23 01:33:07pm, dynamic, 1_6_vs_2_6, true, RIGHT, 2323, 1, 0, 1, 0
87,2019-01-23 01:33:10pm, dynamic, 1_6_vs_2_6, false, LEFT, 2647, 0, 1, 1, 0
88,2019-01-23 01:33:12pm, dynamic, 1_6_vs_2_6, false, LEFT, 2267, 0, 0, 0, 0
89,2019-01-23 01:33:15pm, dynamic, 1_6_vs_2_6, false, LEFT, 2230, 0, 1, 1, 0
90,2019-01-23 01:33:17pm, dynamic, 1_6_vs_2_6, false, LEFT, 2243, 0, 0, 0, 0
91,2019-01-23 01:33:19pm, dynamic, 1_6_vs_2_6, false, LEFT, 2238, 0, 1, 1, 0
92,2019-01-23 01:33:21pm, dynamic, 1_6_vs_2_6, false, LEFT, 2222, 0, 1, 1, 0
93,2019-01-23 01:33:23pm, dynamic, 1_6_vs_2_6, true, RIGHT, 2276, 0, 0, 0, 0
94,2019-01-23 01:33:26pm, dynamic, 1_6_vs_2_6, true, RIGHT, 2308, 1, 0, 1, 0
95,2019-01-23 01:33:28pm, dynamic, 1_6_vs_2_6, true, RIGHT, 2574, 0, 0, 0, 0
96,2019-01-23 01:33:31pm, dynamic, 1_6_vs_2_6, true, RIGHT, 2231, 0, 0, 0, 0
97,2019-01-23 01:33:33pm, dynamic, 1_6_vs_2_6, true, RIGHT, 2447, 0, 0, 0, 0
98,2019-01-23 01:33:35pm, dynamic, 1_6_vs_2_6, true, RIGHT, 2316, 0, 0, 0, 0
99,2019-01-23 01:33:38pm, dynamic, 1_6_vs_2_6, true, RIGHT, 2308, 1, 0, 1, 0
