trial_number, time, schedule_type, schedule_name, is_biased_choice, side_choice, RT, observed_reward, unobserved_reward, biased_reward, unbiased_reward
0,2019-01-23 01:51:17pm, dynamic, 1_6_vs_2_6, false, RIGHT, 12191, 0, 0, 0, 0
1,2019-01-23 01:51:29pm, dynamic, 1_6_vs_2_6, true, LEFT, 11325, 0, 0, 0, 0
2,2019-01-23 01:51:39pm, dynamic, 1_6_vs_2_6, true, LEFT, 9978, 1, 0, 1, 0
3,2019-01-23 01:51:45pm, dynamic, 1_6_vs_2_6, true, LEFT, 6617, 0, 0, 0, 0
4,2019-01-23 01:52:01pm, dynamic, 1_6_vs_2_6, true, LEFT, 16081, 0, 0, 0, 0
5,2019-01-23 01:52:16pm, dynamic, 1_6_vs_2_6, true, LEFT, 14059, 1, 0, 1, 0
6,2019-01-23 01:52:24pm, dynamic, 1_6_vs_2_6, false, RIGHT, 8390, 0, 0, 0, 0
7,2019-01-23 01:52:41pm, dynamic, 1_6_vs_2_6, false, RIGHT, 16992, 0, 1, 1, 0
8,2019-01-23 01:52:59pm, dynamic, 1_6_vs_2_6, false, RIGHT, 18209, 0, 0, 0, 0
9,2019-01-23 01:53:05pm, dynamic, 1_6_vs_2_6, false, RIGHT, 6104, 0, 0, 0, 0
10,2019-01-23 01:53:08pm, dynamic, 1_6_vs_2_6, false, RIGHT, 3213, 0, 0, 0, 0
11,2019-01-23 01:53:25pm, dynamic, 1_6_vs_2_6, false, RIGHT, 16118, 0, 0, 0, 0
12,2019-01-23 01:53:39pm, dynamic, 1_6_vs_2_6, false, RIGHT, 14192, 1, 1, 1, 1
13,2019-01-23 01:53:49pm, dynamic, 1_6_vs_2_6, false, RIGHT, 10100, 0, 0, 0, 0
14,2019-01-23 01:54:07pm, dynamic, 1_6_vs_2_6, false, RIGHT, 18094, 0, 1, 1, 0
15,2019-01-23 01:54:25pm, dynamic, 1_6_vs_2_6, false, RIGHT, 18280, 0, 1, 1, 0
16,2019-01-23 01:54:40pm, dynamic, 1_6_vs_2_6, false, RIGHT, 14509, 0, 1, 1, 0
17,2019-01-23 01:54:52pm, dynamic, 1_6_vs_2_6, false, RIGHT, 12321, 0, 0, 0, 0
18,2019-01-23 01:55:03pm, dynamic, 1_6_vs_2_6, false, RIGHT, 11251, 0, 0, 0, 0
19,2019-01-23 01:55:16pm, dynamic, 1_6_vs_2_6, false, RIGHT, 12641, 1, 1, 1, 1
20,2019-01-23 01:56:09pm, dynamic, 1_6_vs_2_6, false, RIGHT, 52780, 0, 0, 0, 0
21,2019-01-23 01:56:18pm, dynamic, 1_6_vs_2_6, true, LEFT, 8873, 0, 0, 0, 0
22,2019-01-23 01:56:21pm, dynamic, 1_6_vs_2_6, false, RIGHT, 3642, 1, 0, 0, 1
23,2019-01-23 01:56:25pm, dynamic, 1_6_vs_2_6, false, RIGHT, 3920, 0, 1, 1, 0
24,2019-01-23 01:56:33pm, dynamic, 1_6_vs_2_6, false, RIGHT, 7833, 0, 0, 0, 0
25,2019-01-23 01:56:37pm, dynamic, 1_6_vs_2_6, false, RIGHT, 3527, 1, 0, 0, 1
26,2019-01-23 01:56:41pm, dynamic, 1_6_vs_2_6, false, RIGHT, 4278, 0, 0, 0, 0
27,2019-01-23 01:56:44pm, dynamic, 1_6_vs_2_6, false, RIGHT, 3368, 0, 0, 0, 0
28,2019-01-23 01:56:48pm, dynamic, 1_6_vs_2_6, false, RIGHT, 3486, 0, 0, 0, 0
29,2019-01-23 01:56:52pm, dynamic, 1_6_vs_2_6, false, RIGHT, 4822, 0, 0, 0, 0
30,2019-01-23 01:57:09pm, dynamic, 1_6_vs_2_6, true, LEFT, 16392, 1, 0, 1, 0
31,2019-01-23 01:57:15pm, dynamic, 1_6_vs_2_6, true, LEFT, 6618, 0, 0, 0, 0
32,2019-01-23 01:57:24pm, dynamic, 1_6_vs_2_6, true, LEFT, 8552, 1, 0, 1, 0
33,2019-01-23 01:57:31pm, dynamic, 1_6_vs_2_6, false, RIGHT, 7351, 0, 0, 0, 0
34,2019-01-23 01:57:35pm, dynamic, 1_6_vs_2_6, false, RIGHT, 4045, 0, 0, 0, 0
35,2019-01-23 01:58:02pm, dynamic, 1_6_vs_2_6, false, RIGHT, 26372, 0, 1, 1, 0
36,2019-01-23 01:58:22pm, dynamic, 1_6_vs_2_6, false, RIGHT, 19920, 0, 0, 0, 0
37,2019-01-23 01:58:25pm, dynamic, 1_6_vs_2_6, false, RIGHT, 3578, 0, 0, 0, 0
38,2019-01-23 01:58:29pm, dynamic, 1_6_vs_2_6, false, RIGHT, 3503, 0, 1, 1, 0
39,2019-01-23 01:58:33pm, dynamic, 1_6_vs_2_6, true, LEFT, 3766, 1, 0, 1, 0
40,2019-01-23 01:58:36pm, dynamic, 1_6_vs_2_6, true, LEFT, 3203, 0, 0, 0, 0
41,2019-01-23 01:58:40pm, dynamic, 1_6_vs_2_6, false, RIGHT, 4714, 1, 0, 0, 1
42,2019-01-23 01:58:45pm, dynamic, 1_6_vs_2_6, true, LEFT, 4294, 1, 1, 1, 1
43,2019-01-23 01:58:52pm, dynamic, 1_6_vs_2_6, true, LEFT, 7500, 1, 0, 1, 0
44,2019-01-23 01:58:57pm, dynamic, 1_6_vs_2_6, true, LEFT, 4383, 0, 0, 0, 0
45,2019-01-23 01:59:02pm, dynamic, 1_6_vs_2_6, true, LEFT, 5225, 1, 0, 1, 0
46,2019-01-23 01:59:07pm, dynamic, 1_6_vs_2_6, true, LEFT, 4959, 0, 0, 0, 0
47,2019-01-23 01:59:11pm, dynamic, 1_6_vs_2_6, true, LEFT, 4497, 0, 0, 0, 0
48,2019-01-23 01:59:15pm, dynamic, 1_6_vs_2_6, true, LEFT, 3943, 0, 0, 0, 0
49,2019-01-23 01:59:19pm, dynamic, 1_6_vs_2_6, true, LEFT, 3850, 0, 0, 0, 0
50,2019-01-23 01:59:23pm, dynamic, 1_6_vs_2_6, true, LEFT, 3718, 1, 0, 1, 0
51,2019-01-23 01:59:27pm, dynamic, 1_6_vs_2_6, true, LEFT, 3885, 1, 1, 1, 1
52,2019-01-23 01:59:31pm, dynamic, 1_6_vs_2_6, true, LEFT, 3932, 0, 0, 0, 0
53,2019-01-23 01:59:35pm, dynamic, 1_6_vs_2_6, true, LEFT, 4499, 1, 0, 1, 0
54,2019-01-23 01:59:39pm, dynamic, 1_6_vs_2_6, true, LEFT, 4150, 1, 0, 1, 0
55,2019-01-23 01:59:43pm, dynamic, 1_6_vs_2_6, true, LEFT, 4117, 0, 1, 0, 1
56,2019-01-23 01:59:50pm, dynamic, 1_6_vs_2_6, true, LEFT, 6412, 0, 0, 0, 0
57,2019-01-23 01:59:53pm, dynamic, 1_6_vs_2_6, true, LEFT, 3360, 0, 0, 0, 0
58,2019-01-23 01:59:58pm, dynamic, 1_6_vs_2_6, true, LEFT, 4627, 0, 0, 0, 0
59,2019-01-23 02:00:02pm, dynamic, 1_6_vs_2_6, true, LEFT, 4081, 0, 0, 0, 0
60,2019-01-23 02:00:06pm, dynamic, 1_6_vs_2_6, true, LEFT, 3724, 1, 0, 1, 0
61,2019-01-23 02:00:10pm, dynamic, 1_6_vs_2_6, true, LEFT, 4043, 0, 0, 0, 0
62,2019-01-23 02:00:14pm, dynamic, 1_6_vs_2_6, true, LEFT, 4185, 0, 1, 0, 1
63,2019-01-23 02:00:18pm, dynamic, 1_6_vs_2_6, true, LEFT, 4339, 0, 0, 0, 0
64,2019-01-23 02:00:23pm, dynamic, 1_6_vs_2_6, true, LEFT, 4677, 0, 0, 0, 0
65,2019-01-23 02:00:28pm, dynamic, 1_6_vs_2_6, true, LEFT, 4721, 1, 0, 1, 0
66,2019-01-23 02:00:32pm, dynamic, 1_6_vs_2_6, true, LEFT, 4126, 0, 0, 0, 0
67,2019-01-23 02:00:36pm, dynamic, 1_6_vs_2_6, true, LEFT, 4289, 1, 0, 1, 0
68,2019-01-23 02:00:40pm, dynamic, 1_6_vs_2_6, true, LEFT, 3679, 0, 1, 0, 1
69,2019-01-23 02:00:47pm, dynamic, 1_6_vs_2_6, true, LEFT, 7702, 0, 0, 0, 0
70,2019-01-23 02:00:54pm, dynamic, 1_6_vs_2_6, false, RIGHT, 6858, 0, 1, 1, 0
71,2019-01-23 02:01:03pm, dynamic, 1_6_vs_2_6, true, LEFT, 8192, 1, 0, 1, 0
72,2019-01-23 02:01:09pm, dynamic, 1_6_vs_2_6, true, LEFT, 6886, 0, 1, 0, 1
73,2019-01-23 02:01:16pm, dynamic, 1_6_vs_2_6, true, LEFT, 6718, 0, 0, 0, 0
74,2019-01-23 02:01:23pm, dynamic, 1_6_vs_2_6, true, LEFT, 7046, 0, 1, 0, 1
75,2019-01-23 02:01:30pm, dynamic, 1_6_vs_2_6, true, LEFT, 6554, 1, 0, 1, 0
76,2019-01-23 02:01:36pm, dynamic, 1_6_vs_2_6, true, LEFT, 6594, 0, 0, 0, 0
77,2019-01-23 02:01:43pm, dynamic, 1_6_vs_2_6, true, LEFT, 6759, 0, 0, 0, 0
78,2019-01-23 02:01:51pm, dynamic, 1_6_vs_2_6, true, LEFT, 7520, 0, 0, 0, 0
79,2019-01-23 02:02:01pm, dynamic, 1_6_vs_2_6, true, LEFT, 10442, 0, 0, 0, 0
80,2019-01-23 02:02:06pm, dynamic, 1_6_vs_2_6, true, LEFT, 5442, 1, 0, 1, 0
81,2019-01-23 02:02:17pm, dynamic, 1_6_vs_2_6, true, LEFT, 10650, 0, 0, 0, 0
82,2019-01-23 02:02:24pm, dynamic, 1_6_vs_2_6, true, LEFT, 7042, 0, 0, 0, 0
83,2019-01-23 02:02:31pm, dynamic, 1_6_vs_2_6, true, LEFT, 6928, 0, 0, 0, 0
84,2019-01-23 02:02:38pm, dynamic, 1_6_vs_2_6, true, LEFT, 7376, 0, 0, 0, 0
85,2019-01-23 02:02:49pm, dynamic, 1_6_vs_2_6, true, LEFT, 10510, 1, 1, 1, 1
86,2019-01-23 02:02:53pm, dynamic, 1_6_vs_2_6, true, LEFT, 3992, 1, 0, 1, 0
87,2019-01-23 02:02:57pm, dynamic, 1_6_vs_2_6, true, LEFT, 4412, 0, 0, 0, 0
88,2019-01-23 02:03:06pm, dynamic, 1_6_vs_2_6, false, RIGHT, 9160, 1, 0, 0, 1
89,2019-01-23 02:03:10pm, dynamic, 1_6_vs_2_6, true, LEFT, 3822, 1, 1, 1, 1
90,2019-01-23 02:03:14pm, dynamic, 1_6_vs_2_6, true, LEFT, 3952, 0, 0, 0, 0
91,2019-01-23 02:03:20pm, dynamic, 1_6_vs_2_6, true, LEFT, 5938, 1, 0, 1, 0
92,2019-01-23 02:03:26pm, dynamic, 1_6_vs_2_6, true, LEFT, 6148, 1, 0, 1, 0
93,2019-01-23 02:03:31pm, dynamic, 1_6_vs_2_6, true, LEFT, 4580, 0, 0, 0, 0
94,2019-01-23 02:03:39pm, dynamic, 1_6_vs_2_6, false, RIGHT, 7839, 0, 0, 0, 0
95,2019-01-23 02:03:43pm, dynamic, 1_6_vs_2_6, false, RIGHT, 3883, 1, 0, 0, 1
96,2019-01-23 02:03:47pm, dynamic, 1_6_vs_2_6, false, RIGHT, 4790, 0, 0, 0, 0
97,2019-01-23 02:04:02pm, dynamic, 1_6_vs_2_6, true, LEFT, 14878, 0, 0, 0, 0
98,2019-01-23 02:04:11pm, dynamic, 1_6_vs_2_6, true, LEFT, 8287, 0, 0, 0, 0
