trial_number, time, schedule_type, schedule_name, is_biased_choice, side_choice, RT, observed_reward, unobserved_reward, biased_reward, unbiased_reward
0,2019-01-23 12:10:37pm, dynamic, 1_6_vs_2_6, false, LEFT, 2029, 0, 0, 0, 0
1,2019-01-23 12:10:40pm, dynamic, 1_6_vs_2_6, true, RIGHT, 3300, 0, 0, 0, 0
2,2019-01-23 12:10:43pm, dynamic, 1_6_vs_2_6, false, LEFT, 3014, 0, 0, 0, 0
3,2019-01-23 12:10:45pm, dynamic, 1_6_vs_2_6, true, RIGHT, 2416, 1, 0, 1, 0
4,2019-01-23 12:10:48pm, dynamic, 1_6_vs_2_6, true, RIGHT, 2521, 1, 0, 1, 0
5,2019-01-23 12:10:50pm, dynamic, 1_6_vs_2_6, true, RIGHT, 2720, 0, 1, 0, 1
6,2019-01-23 12:10:54pm, dynamic, 1_6_vs_2_6, false, LEFT, 3016, 0, 1, 1, 0
7,2019-01-23 12:10:56pm, dynamic, 1_6_vs_2_6, false, LEFT, 2359, 0, 0, 0, 0
8,2019-01-23 12:10:59pm, dynamic, 1_6_vs_2_6, true, RIGHT, 2641, 0, 0, 0, 0
9,2019-01-23 12:11:02pm, dynamic, 1_6_vs_2_6, false, LEFT, 3358, 0, 0, 0, 0
10,2019-01-23 12:11:05pm, dynamic, 1_6_vs_2_6, true, RIGHT, 3167, 1, 0, 1, 0
11,2019-01-23 12:11:07pm, dynamic, 1_6_vs_2_6, true, RIGHT, 2460, 0, 0, 0, 0
12,2019-01-23 12:11:10pm, dynamic, 1_6_vs_2_6, false, LEFT, 2833, 0, 0, 0, 0
13,2019-01-23 12:11:13pm, dynamic, 1_6_vs_2_6, true, RIGHT, 2846, 0, 1, 0, 1
14,2019-01-23 12:11:17pm, dynamic, 1_6_vs_2_6, false, LEFT, 3199, 0, 0, 0, 0
15,2019-01-23 12:11:19pm, dynamic, 1_6_vs_2_6, false, LEFT, 2487, 0, 0, 0, 0
16,2019-01-23 12:11:22pm, dynamic, 1_6_vs_2_6, false, LEFT, 2901, 0, 0, 0, 0
17,2019-01-23 12:11:24pm, dynamic, 1_6_vs_2_6, true, RIGHT, 2438, 1, 0, 1, 0
18,2019-01-23 12:11:27pm, dynamic, 1_6_vs_2_6, false, LEFT, 2350, 0, 1, 1, 0
19,2019-01-23 12:11:29pm, dynamic, 1_6_vs_2_6, true, RIGHT, 2672, 1, 0, 1, 0
20,2019-01-23 12:11:32pm, dynamic, 1_6_vs_2_6, true, RIGHT, 2594, 0, 0, 0, 0
21,2019-01-23 12:11:34pm, dynamic, 1_6_vs_2_6, true, RIGHT, 2302, 1, 0, 1, 0
22,2019-01-23 12:11:36pm, dynamic, 1_6_vs_2_6, true, RIGHT, 2266, 0, 0, 0, 0
23,2019-01-23 12:11:39pm, dynamic, 1_6_vs_2_6, true, RIGHT, 2454, 0, 1, 0, 1
24,2019-01-23 12:11:41pm, dynamic, 1_6_vs_2_6, true, RIGHT, 2545, 0, 1, 0, 1
25,2019-01-23 12:11:44pm, dynamic, 1_6_vs_2_6, true, RIGHT, 2305, 0, 0, 0, 0
26,2019-01-23 12:11:46pm, dynamic, 1_6_vs_2_6, false, LEFT, 2056, 1, 0, 0, 1
27,2019-01-23 12:11:48pm, dynamic, 1_6_vs_2_6, false, LEFT, 2170, 0, 0, 0, 0
28,2019-01-23 12:11:50pm, dynamic, 1_6_vs_2_6, true, RIGHT, 2045, 0, 0, 0, 0
29,2019-01-23 12:11:52pm, dynamic, 1_6_vs_2_6, false, LEFT, 2135, 0, 0, 0, 0
30,2019-01-23 12:11:54pm, dynamic, 1_6_vs_2_6, true, RIGHT, 2224, 0, 0, 0, 0
31,2019-01-23 12:11:56pm, dynamic, 1_6_vs_2_6, true, RIGHT, 2129, 0, 1, 0, 1
32,2019-01-23 12:12:01pm, dynamic, 1_6_vs_2_6, false, LEFT, 4654, 0, 1, 1, 0
33,2019-01-23 12:12:04pm, dynamic, 1_6_vs_2_6, true, RIGHT, 2450, 0, 0, 0, 0
34,2019-01-23 12:12:07pm, dynamic, 1_6_vs_2_6, false, LEFT, 3792, 0, 0, 0, 0
35,2019-01-23 12:12:10pm, dynamic, 1_6_vs_2_6, true, RIGHT, 2883, 0, 0, 0, 0
36,2019-01-23 12:12:12pm, dynamic, 1_6_vs_2_6, false, LEFT, 2229, 0, 0, 0, 0
37,2019-01-23 12:12:15pm, dynamic, 1_6_vs_2_6, true, RIGHT, 2153, 0, 0, 0, 0
38,2019-01-23 12:12:17pm, dynamic, 1_6_vs_2_6, false, LEFT, 2519, 1, 1, 1, 1
39,2019-01-23 12:12:20pm, dynamic, 1_6_vs_2_6, true, RIGHT, 2424, 0, 0, 0, 0
40,2019-01-23 12:12:22pm, dynamic, 1_6_vs_2_6, false, LEFT, 2593, 0, 0, 0, 0
41,2019-01-23 12:12:24pm, dynamic, 1_6_vs_2_6, true, RIGHT, 2158, 0, 0, 0, 0
42,2019-01-23 12:12:27pm, dynamic, 1_6_vs_2_6, false, LEFT, 2576, 0, 0, 0, 0
43,2019-01-23 12:12:29pm, dynamic, 1_6_vs_2_6, true, RIGHT, 2056, 0, 0, 0, 0
44,2019-01-23 12:12:31pm, dynamic, 1_6_vs_2_6, false, LEFT, 2169, 0, 0, 0, 0
45,2019-01-23 12:12:33pm, dynamic, 1_6_vs_2_6, true, RIGHT, 2065, 0, 0, 0, 0
46,2019-01-23 12:12:35pm, dynamic, 1_6_vs_2_6, false, LEFT, 2192, 1, 0, 0, 1
47,2019-01-23 12:12:38pm, dynamic, 1_6_vs_2_6, false, LEFT, 2623, 0, 0, 0, 0
48,2019-01-23 12:12:40pm, dynamic, 1_6_vs_2_6, true, RIGHT, 2072, 1, 0, 1, 0
49,2019-01-23 12:12:43pm, dynamic, 1_6_vs_2_6, true, RIGHT, 2593, 1, 0, 1, 0
50,2019-01-23 12:12:45pm, dynamic, 1_6_vs_2_6, false, LEFT, 2142, 0, 1, 1, 0
51,2019-01-23 12:12:47pm, dynamic, 1_6_vs_2_6, true, RIGHT, 2297, 1, 0, 1, 0
52,2019-01-23 12:12:50pm, dynamic, 1_6_vs_2_6, true, RIGHT, 2737, 1, 0, 1, 0
53,2019-01-23 12:12:53pm, dynamic, 1_6_vs_2_6, false, LEFT, 2945, 1, 0, 0, 1
54,2019-01-23 12:12:55pm, dynamic, 1_6_vs_2_6, true, RIGHT, 2238, 1, 0, 1, 0
55,2019-01-23 12:12:57pm, dynamic, 1_6_vs_2_6, true, RIGHT, 2048, 0, 0, 0, 0
56,2019-01-23 12:13:00pm, dynamic, 1_6_vs_2_6, true, RIGHT, 2681, 0, 0, 0, 0
57,2019-01-23 12:13:02pm, dynamic, 1_6_vs_2_6, false, LEFT, 2096, 0, 0, 0, 0
58,2019-01-23 12:13:04pm, dynamic, 1_6_vs_2_6, true, RIGHT, 1999, 1, 0, 1, 0
59,2019-01-23 12:13:09pm, dynamic, 1_6_vs_2_6, true, RIGHT, 5265, 0, 0, 0, 0
60,2019-01-23 12:13:11pm, dynamic, 1_6_vs_2_6, false, LEFT, 2352, 0, 0, 0, 0
61,2019-01-23 12:13:13pm, dynamic, 1_6_vs_2_6, true, RIGHT, 2015, 0, 0, 0, 0
62,2019-01-23 12:13:16pm, dynamic, 1_6_vs_2_6, false, LEFT, 2297, 0, 0, 0, 0
63,2019-01-23 12:13:19pm, dynamic, 1_6_vs_2_6, true, RIGHT, 2827, 0, 0, 0, 0
64,2019-01-23 12:13:21pm, dynamic, 1_6_vs_2_6, true, RIGHT, 2571, 0, 0, 0, 0
65,2019-01-23 12:13:24pm, dynamic, 1_6_vs_2_6, false, LEFT, 2394, 0, 1, 1, 0
66,2019-01-23 12:13:26pm, dynamic, 1_6_vs_2_6, true, RIGHT, 2280, 0, 0, 0, 0
67,2019-01-23 12:13:29pm, dynamic, 1_6_vs_2_6, false, LEFT, 2783, 1, 0, 0, 1
68,2019-01-23 12:13:32pm, dynamic, 1_6_vs_2_6, false, LEFT, 3056, 0, 1, 1, 0
69,2019-01-23 12:13:34pm, dynamic, 1_6_vs_2_6, true, RIGHT, 2152, 1, 0, 1, 0
70,2019-01-23 12:13:36pm, dynamic, 1_6_vs_2_6, true, RIGHT, 2521, 1, 0, 1, 0
71,2019-01-23 12:13:42pm, dynamic, 1_6_vs_2_6, false, LEFT, 5048, 0, 1, 1, 0
72,2019-01-23 12:13:44pm, dynamic, 1_6_vs_2_6, true, RIGHT, 2247, 1, 0, 1, 0
73,2019-01-23 12:13:46pm, dynamic, 1_6_vs_2_6, true, RIGHT, 2632, 1, 0, 1, 0
74,2019-01-23 12:13:49pm, dynamic, 1_6_vs_2_6, true, RIGHT, 2538, 1, 0, 1, 0
75,2019-01-23 12:13:51pm, dynamic, 1_6_vs_2_6, true, RIGHT, 2294, 0, 0, 0, 0
76,2019-01-23 12:13:53pm, dynamic, 1_6_vs_2_6, false, LEFT, 2272, 0, 0, 0, 0
77,2019-01-23 12:13:56pm, dynamic, 1_6_vs_2_6, true, RIGHT, 2176, 0, 0, 0, 0
78,2019-01-23 12:13:58pm, dynamic, 1_6_vs_2_6, false, LEFT, 2191, 0, 0, 0, 0
79,2019-01-23 12:14:02pm, dynamic, 1_6_vs_2_6, true, RIGHT, 3825, 0, 0, 0, 0
80,2019-01-23 12:14:05pm, dynamic, 1_6_vs_2_6, true, RIGHT, 3220, 1, 0, 1, 0
81,2019-01-23 12:14:11pm, dynamic, 1_6_vs_2_6, true, RIGHT, 5900, 0, 0, 0, 0
82,2019-01-23 12:14:13pm, dynamic, 1_6_vs_2_6, true, RIGHT, 2175, 0, 1, 0, 1
83,2019-01-23 12:14:16pm, dynamic, 1_6_vs_2_6, false, LEFT, 2392, 0, 0, 0, 0
84,2019-01-23 12:14:18pm, dynamic, 1_6_vs_2_6, true, RIGHT, 2705, 1, 0, 1, 0
85,2019-01-23 12:14:21pm, dynamic, 1_6_vs_2_6, true, RIGHT, 2991, 1, 0, 1, 0
86,2019-01-23 12:14:24pm, dynamic, 1_6_vs_2_6, false, LEFT, 2537, 1, 0, 0, 1
87,2019-01-23 12:14:26pm, dynamic, 1_6_vs_2_6, false, LEFT, 2159, 0, 1, 1, 0
88,2019-01-23 12:14:28pm, dynamic, 1_6_vs_2_6, true, RIGHT, 2042, 1, 0, 1, 0
89,2019-01-23 12:14:30pm, dynamic, 1_6_vs_2_6, false, LEFT, 2368, 0, 0, 0, 0
90,2019-01-23 12:14:35pm, dynamic, 1_6_vs_2_6, true, RIGHT, 4961, 0, 0, 0, 0
91,2019-01-23 12:14:37pm, dynamic, 1_6_vs_2_6, false, LEFT, 2238, 1, 0, 0, 1
92,2019-01-23 12:14:40pm, dynamic, 1_6_vs_2_6, true, RIGHT, 2649, 0, 0, 0, 0
93,2019-01-23 12:14:42pm, dynamic, 1_6_vs_2_6, true, RIGHT, 2183, 0, 0, 0, 0
94,2019-01-23 12:14:44pm, dynamic, 1_6_vs_2_6, false, LEFT, 2256, 0, 0, 0, 0
95,2019-01-23 12:14:47pm, dynamic, 1_6_vs_2_6, true, RIGHT, 2279, 1, 1, 1, 1
96,2019-01-23 12:14:49pm, dynamic, 1_6_vs_2_6, true, RIGHT, 2209, 0, 1, 0, 1
97,2019-01-23 12:14:51pm, dynamic, 1_6_vs_2_6, false, LEFT, 2271, 0, 1, 1, 0
98,2019-01-23 12:14:54pm, dynamic, 1_6_vs_2_6, false, LEFT, 2401, 0, 0, 0, 0
