trial_number, time, schedule_type, schedule_name, is_biased_choice, side_choice, RT, observed_reward, unobserved_reward, biased_reward, unbiased_reward
0,2019-01-24 09:58:19am, dynamic, 1_6_vs_2_6, false, LEFT, 3727, 0, 0, 0, 0
1,2019-01-24 09:58:22am, dynamic, 1_6_vs_2_6, true, RIGHT, 3122, 0, 0, 0, 0
2,2019-01-24 09:58:25am, dynamic, 1_6_vs_2_6, false, LEFT, 2420, 1, 0, 0, 1
3,2019-01-24 09:58:27am, dynamic, 1_6_vs_2_6, true, RIGHT, 2349, 0, 0, 0, 0
4,2019-01-24 09:58:30am, dynamic, 1_6_vs_2_6, false, LEFT, 2567, 0, 0, 0, 0
5,2019-01-24 09:58:32am, dynamic, 1_6_vs_2_6, false, LEFT, 2314, 0, 1, 1, 0
6,2019-01-24 09:58:34am, dynamic, 1_6_vs_2_6, false, LEFT, 2410, 0, 0, 0, 0
7,2019-01-24 09:58:37am, dynamic, 1_6_vs_2_6, true, RIGHT, 2204, 1, 0, 1, 0
8,2019-01-24 09:58:39am, dynamic, 1_6_vs_2_6, true, RIGHT, 2274, 0, 0, 0, 0
9,2019-01-24 09:58:41am, dynamic, 1_6_vs_2_6, true, RIGHT, 2498, 0, 0, 0, 0
10,2019-01-24 09:58:44am, dynamic, 1_6_vs_2_6, false, LEFT, 2224, 0, 0, 0, 0
11,2019-01-24 09:58:46am, dynamic, 1_6_vs_2_6, true, RIGHT, 2388, 1, 0, 1, 0
12,2019-01-24 09:58:49am, dynamic, 1_6_vs_2_6, true, RIGHT, 2564, 1, 0, 1, 0
13,2019-01-24 09:58:51am, dynamic, 1_6_vs_2_6, true, RIGHT, 2591, 0, 0, 0, 0
14,2019-01-24 09:58:54am, dynamic, 1_6_vs_2_6, false, LEFT, 2379, 0, 0, 0, 0
15,2019-01-24 09:58:56am, dynamic, 1_6_vs_2_6, false, LEFT, 2226, 0, 0, 0, 0
16,2019-01-24 09:58:58am, dynamic, 1_6_vs_2_6, true, RIGHT, 2162, 0, 0, 0, 0
17,2019-01-24 09:59:00am, dynamic, 1_6_vs_2_6, true, RIGHT, 2130, 0, 0, 0, 0
18,2019-01-24 09:59:03am, dynamic, 1_6_vs_2_6, false, LEFT, 2434, 1, 0, 0, 1
19,2019-01-24 09:59:05am, dynamic, 1_6_vs_2_6, false, LEFT, 2552, 1, 0, 0, 1
20,2019-01-24 09:59:07am, dynamic, 1_6_vs_2_6, true, RIGHT, 2248, 0, 0, 0, 0
21,2019-01-24 09:59:10am, dynamic, 1_6_vs_2_6, true, RIGHT, 2272, 1, 0, 1, 0
22,2019-01-24 09:59:12am, dynamic, 1_6_vs_2_6, true, RIGHT, 2112, 1, 0, 1, 0
23,2019-01-24 09:59:14am, dynamic, 1_6_vs_2_6, false, LEFT, 2185, 0, 0, 0, 0
24,2019-01-24 09:59:16am, dynamic, 1_6_vs_2_6, false, LEFT, 2111, 0, 1, 1, 0
25,2019-01-24 09:59:18am, dynamic, 1_6_vs_2_6, true, RIGHT, 2121, 0, 0, 0, 0
26,2019-01-24 09:59:20am, dynamic, 1_6_vs_2_6, true, RIGHT, 2166, 0, 1, 0, 1
27,2019-01-24 09:59:23am, dynamic, 1_6_vs_2_6, false, LEFT, 2410, 0, 0, 0, 0
28,2019-01-24 09:59:25am, dynamic, 1_6_vs_2_6, true, RIGHT, 2657, 1, 1, 1, 1
29,2019-01-24 09:59:27am, dynamic, 1_6_vs_2_6, false, LEFT, 2157, 0, 0, 0, 0
30,2019-01-24 09:59:31am, dynamic, 1_6_vs_2_6, true, RIGHT, 3230, 0, 0, 0, 0
31,2019-01-24 09:59:33am, dynamic, 1_6_vs_2_6, false, LEFT, 2586, 0, 0, 0, 0
32,2019-01-24 09:59:36am, dynamic, 1_6_vs_2_6, false, LEFT, 2488, 1, 0, 0, 1
33,2019-01-24 09:59:38am, dynamic, 1_6_vs_2_6, true, RIGHT, 2142, 1, 0, 1, 0
34,2019-01-24 09:59:41am, dynamic, 1_6_vs_2_6, false, LEFT, 2648, 1, 1, 1, 1
35,2019-01-24 09:59:43am, dynamic, 1_6_vs_2_6, false, LEFT, 2170, 1, 1, 1, 1
36,2019-01-24 09:59:45am, dynamic, 1_6_vs_2_6, true, RIGHT, 2194, 0, 0, 0, 0
37,2019-01-24 09:59:47am, dynamic, 1_6_vs_2_6, true, RIGHT, 2282, 0, 0, 0, 0
38,2019-01-24 09:59:49am, dynamic, 1_6_vs_2_6, false, LEFT, 2273, 0, 1, 1, 0
39,2019-01-24 09:59:52am, dynamic, 1_6_vs_2_6, false, LEFT, 2211, 0, 0, 0, 0
40,2019-01-24 09:59:54am, dynamic, 1_6_vs_2_6, true, RIGHT, 2178, 0, 0, 0, 0
41,2019-01-24 09:59:56am, dynamic, 1_6_vs_2_6, true, RIGHT, 2128, 1, 0, 1, 0
42,2019-01-24 09:59:59am, dynamic, 1_6_vs_2_6, false, LEFT, 2956, 0, 1, 1, 0
43,2019-01-24 10:00:01am, dynamic, 1_6_vs_2_6, true, RIGHT, 2236, 0, 1, 0, 1
44,2019-01-24 10:00:04am, dynamic, 1_6_vs_2_6, true, RIGHT, 2212, 0, 0, 0, 0
45,2019-01-24 10:00:06am, dynamic, 1_6_vs_2_6, false, LEFT, 2231, 0, 0, 0, 0
46,2019-01-24 10:00:08am, dynamic, 1_6_vs_2_6, false, LEFT, 2150, 1, 1, 1, 1
47,2019-01-24 10:00:10am, dynamic, 1_6_vs_2_6, false, LEFT, 2307, 0, 0, 0, 0
48,2019-01-24 10:00:12am, dynamic, 1_6_vs_2_6, true, RIGHT, 2153, 1, 0, 1, 0
49,2019-01-24 10:00:14am, dynamic, 1_6_vs_2_6, false, LEFT, 2196, 0, 0, 0, 0
50,2019-01-24 10:00:17am, dynamic, 1_6_vs_2_6, true, RIGHT, 2218, 0, 0, 0, 0
51,2019-01-24 10:00:19am, dynamic, 1_6_vs_2_6, true, RIGHT, 2204, 1, 0, 1, 0
52,2019-01-24 10:00:21am, dynamic, 1_6_vs_2_6, false, LEFT, 2169, 1, 0, 0, 1
53,2019-01-24 10:00:23am, dynamic, 1_6_vs_2_6, true, RIGHT, 2087, 1, 1, 1, 1
54,2019-01-24 10:00:25am, dynamic, 1_6_vs_2_6, true, RIGHT, 2240, 1, 0, 1, 0
55,2019-01-24 10:00:28am, dynamic, 1_6_vs_2_6, false, LEFT, 2458, 0, 0, 0, 0
56,2019-01-24 10:00:30am, dynamic, 1_6_vs_2_6, false, LEFT, 2388, 0, 0, 0, 0
57,2019-01-24 10:00:33am, dynamic, 1_6_vs_2_6, true, RIGHT, 2406, 1, 0, 1, 0
58,2019-01-24 10:00:35am, dynamic, 1_6_vs_2_6, false, LEFT, 2220, 0, 1, 1, 0
59,2019-01-24 10:00:37am, dynamic, 1_6_vs_2_6, true, RIGHT, 2124, 0, 0, 0, 0
60,2019-01-24 10:00:39am, dynamic, 1_6_vs_2_6, true, RIGHT, 2394, 0, 0, 0, 0
61,2019-01-24 10:00:42am, dynamic, 1_6_vs_2_6, true, RIGHT, 2208, 1, 0, 1, 0
62,2019-01-24 10:00:44am, dynamic, 1_6_vs_2_6, true, RIGHT, 2191, 1, 0, 1, 0
63,2019-01-24 10:00:46am, dynamic, 1_6_vs_2_6, false, LEFT, 2389, 0, 1, 1, 0
64,2019-01-24 10:00:49am, dynamic, 1_6_vs_2_6, true, RIGHT, 2531, 1, 0, 1, 0
65,2019-01-24 10:00:51am, dynamic, 1_6_vs_2_6, true, RIGHT, 2189, 0, 1, 0, 1
66,2019-01-24 10:00:53am, dynamic, 1_6_vs_2_6, true, RIGHT, 2268, 0, 0, 0, 0
67,2019-01-24 10:00:55am, dynamic, 1_6_vs_2_6, false, LEFT, 2299, 0, 0, 0, 0
68,2019-01-24 10:00:58am, dynamic, 1_6_vs_2_6, false, LEFT, 2137, 0, 0, 0, 0
69,2019-01-24 10:01:00am, dynamic, 1_6_vs_2_6, true, RIGHT, 2349, 0, 0, 0, 0
70,2019-01-24 10:01:02am, dynamic, 1_6_vs_2_6, true, RIGHT, 2367, 1, 0, 1, 0
71,2019-01-24 10:01:05am, dynamic, 1_6_vs_2_6, true, RIGHT, 2282, 0, 0, 0, 0
72,2019-01-24 10:01:07am, dynamic, 1_6_vs_2_6, false, LEFT, 2427, 1, 0, 0, 1
73,2019-01-24 10:01:10am, dynamic, 1_6_vs_2_6, false, LEFT, 2406, 0, 1, 1, 0
74,2019-01-24 10:01:12am, dynamic, 1_6_vs_2_6, true, RIGHT, 2304, 0, 0, 0, 0
75,2019-01-24 10:01:14am, dynamic, 1_6_vs_2_6, true, RIGHT, 2402, 0, 0, 0, 0
76,2019-01-24 10:01:17am, dynamic, 1_6_vs_2_6, false, LEFT, 2568, 0, 0, 0, 0
77,2019-01-24 10:01:19am, dynamic, 1_6_vs_2_6, false, LEFT, 2126, 0, 0, 0, 0
78,2019-01-24 10:01:21am, dynamic, 1_6_vs_2_6, true, RIGHT, 2394, 0, 0, 0, 0
79,2019-01-24 10:01:23am, dynamic, 1_6_vs_2_6, true, RIGHT, 2152, 0, 0, 0, 0
80,2019-01-24 10:01:25am, dynamic, 1_6_vs_2_6, false, LEFT, 2130, 0, 0, 0, 0
81,2019-01-24 10:01:28am, dynamic, 1_6_vs_2_6, true, RIGHT, 2460, 0, 0, 0, 0
82,2019-01-24 10:01:30am, dynamic, 1_6_vs_2_6, true, RIGHT, 2316, 1, 1, 1, 1
83,2019-01-24 10:01:32am, dynamic, 1_6_vs_2_6, true, RIGHT, 2106, 0, 1, 0, 1
84,2019-01-24 10:01:35am, dynamic, 1_6_vs_2_6, false, LEFT, 2349, 0, 0, 0, 0
85,2019-01-24 10:01:37am, dynamic, 1_6_vs_2_6, false, LEFT, 2128, 0, 0, 0, 0
86,2019-01-24 10:01:39am, dynamic, 1_6_vs_2_6, true, RIGHT, 2313, 1, 0, 1, 0
87,2019-01-24 10:01:41am, dynamic, 1_6_vs_2_6, true, RIGHT, 2156, 1, 0, 1, 0
88,2019-01-24 10:01:43am, dynamic, 1_6_vs_2_6, true, RIGHT, 2196, 1, 0, 1, 0
89,2019-01-24 10:01:46am, dynamic, 1_6_vs_2_6, false, LEFT, 2135, 0, 0, 0, 0
90,2019-01-24 10:01:48am, dynamic, 1_6_vs_2_6, false, LEFT, 2256, 0, 1, 1, 0
91,2019-01-24 10:01:50am, dynamic, 1_6_vs_2_6, true, RIGHT, 2287, 0, 0, 0, 0
92,2019-01-24 10:01:52am, dynamic, 1_6_vs_2_6, true, RIGHT, 2249, 0, 0, 0, 0
93,2019-01-24 10:01:55am, dynamic, 1_6_vs_2_6, false, LEFT, 2338, 0, 1, 1, 0
94,2019-01-24 10:01:57am, dynamic, 1_6_vs_2_6, false, LEFT, 2308, 0, 0, 0, 0
95,2019-01-24 10:01:59am, dynamic, 1_6_vs_2_6, true, RIGHT, 2238, 0, 0, 0, 0
96,2019-01-24 10:02:01am, dynamic, 1_6_vs_2_6, true, RIGHT, 2159, 0, 0, 0, 0
97,2019-01-24 10:02:04am, dynamic, 1_6_vs_2_6, false, LEFT, 2139, 0, 0, 0, 0
98,2019-01-24 10:02:06am, dynamic, 1_6_vs_2_6, true, RIGHT, 2084, 0, 0, 0, 0
99,2019-01-24 10:02:08am, dynamic, 1_6_vs_2_6, true, RIGHT, 2514, 0, 0, 0, 0
