trial_number, time, schedule_type, schedule_name, is_biased_choice, side_choice, RT, observed_reward, unobserved_reward, biased_reward, unbiased_reward
0,2019-01-23 01:25:50pm, dynamic, 1_6_vs_2_6, true, LEFT, 9887, 1, 0, 1, 0
1,2019-01-23 01:25:53pm, dynamic, 1_6_vs_2_6, false, RIGHT, 3039, 0, 0, 0, 0
2,2019-01-23 01:25:57pm, dynamic, 1_6_vs_2_6, true, LEFT, 4280, 1, 0, 1, 0
3,2019-01-23 01:26:02pm, dynamic, 1_6_vs_2_6, true, LEFT, 4482, 0, 0, 0, 0
4,2019-01-23 01:26:05pm, dynamic, 1_6_vs_2_6, false, RIGHT, 3014, 0, 0, 0, 0
5,2019-01-23 01:26:07pm, dynamic, 1_6_vs_2_6, true, LEFT, 2623, 1, 1, 1, 1
6,2019-01-23 01:26:11pm, dynamic, 1_6_vs_2_6, false, RIGHT, 3865, 1, 0, 0, 1
7,2019-01-23 01:26:14pm, dynamic, 1_6_vs_2_6, true, LEFT, 2968, 0, 0, 0, 0
8,2019-01-23 01:26:17pm, dynamic, 1_6_vs_2_6, false, RIGHT, 2593, 0, 0, 0, 0
9,2019-01-23 01:26:19pm, dynamic, 1_6_vs_2_6, true, LEFT, 2623, 0, 0, 0, 0
10,2019-01-23 01:26:22pm, dynamic, 1_6_vs_2_6, false, RIGHT, 2808, 0, 1, 1, 0
11,2019-01-23 01:26:25pm, dynamic, 1_6_vs_2_6, false, RIGHT, 2576, 0, 0, 0, 0
12,2019-01-23 01:26:27pm, dynamic, 1_6_vs_2_6, true, LEFT, 2408, 0, 0, 0, 0
13,2019-01-23 01:26:30pm, dynamic, 1_6_vs_2_6, false, RIGHT, 2640, 0, 0, 0, 0
14,2019-01-23 01:26:33pm, dynamic, 1_6_vs_2_6, true, LEFT, 2600, 0, 1, 0, 1
15,2019-01-23 01:26:36pm, dynamic, 1_6_vs_2_6, true, LEFT, 3264, 0, 0, 0, 0
16,2019-01-23 01:26:38pm, dynamic, 1_6_vs_2_6, false, RIGHT, 2408, 0, 0, 0, 0
17,2019-01-23 01:26:41pm, dynamic, 1_6_vs_2_6, false, RIGHT, 3020, 0, 0, 0, 0
18,2019-01-23 01:26:44pm, dynamic, 1_6_vs_2_6, true, LEFT, 2408, 0, 0, 0, 0
19,2019-01-23 01:26:46pm, dynamic, 1_6_vs_2_6, true, LEFT, 2336, 1, 1, 1, 1
20,2019-01-23 01:26:49pm, dynamic, 1_6_vs_2_6, true, LEFT, 2776, 1, 0, 1, 0
21,2019-01-23 01:26:51pm, dynamic, 1_6_vs_2_6, true, LEFT, 2447, 1, 1, 1, 1
22,2019-01-23 01:26:53pm, dynamic, 1_6_vs_2_6, true, LEFT, 2337, 0, 0, 0, 0
23,2019-01-23 01:26:56pm, dynamic, 1_6_vs_2_6, false, RIGHT, 2536, 0, 0, 0, 0
24,2019-01-23 01:27:00pm, dynamic, 1_6_vs_2_6, true, LEFT, 3136, 0, 0, 0, 0
25,2019-01-23 01:27:02pm, dynamic, 1_6_vs_2_6, false, RIGHT, 3008, 0, 1, 1, 0
26,2019-01-23 01:27:04pm, dynamic, 1_6_vs_2_6, true, LEFT, 2312, 0, 0, 0, 0
27,2019-01-23 01:27:07pm, dynamic, 1_6_vs_2_6, false, RIGHT, 2311, 0, 0, 0, 0
28,2019-01-23 01:27:09pm, dynamic, 1_6_vs_2_6, false, RIGHT, 2321, 0, 0, 0, 0
29,2019-01-23 01:27:12pm, dynamic, 1_6_vs_2_6, false, RIGHT, 2472, 0, 1, 1, 0
30,2019-01-23 01:27:14pm, dynamic, 1_6_vs_2_6, true, LEFT, 2600, 0, 1, 0, 1
31,2019-01-23 01:27:16pm, dynamic, 1_6_vs_2_6, false, RIGHT, 2303, 0, 0, 0, 0
32,2019-01-23 01:27:19pm, dynamic, 1_6_vs_2_6, false, RIGHT, 2281, 0, 0, 0, 0
33,2019-01-23 01:27:21pm, dynamic, 1_6_vs_2_6, false, RIGHT, 2232, 0, 0, 0, 0
34,2019-01-23 01:27:23pm, dynamic, 1_6_vs_2_6, true, LEFT, 2223, 0, 0, 0, 0
35,2019-01-23 01:27:26pm, dynamic, 1_6_vs_2_6, false, RIGHT, 2681, 0, 1, 1, 0
36,2019-01-23 01:27:28pm, dynamic, 1_6_vs_2_6, true, LEFT, 2456, 1, 0, 1, 0
37,2019-01-23 01:27:31pm, dynamic, 1_6_vs_2_6, true, LEFT, 2784, 0, 0, 0, 0
38,2019-01-23 01:27:34pm, dynamic, 1_6_vs_2_6, true, LEFT, 2439, 0, 0, 0, 0
39,2019-01-23 01:27:36pm, dynamic, 1_6_vs_2_6, false, RIGHT, 2232, 1, 1, 1, 1
40,2019-01-23 01:27:38pm, dynamic, 1_6_vs_2_6, false, RIGHT, 2481, 0, 1, 1, 0
41,2019-01-23 01:27:41pm, dynamic, 1_6_vs_2_6, true, LEFT, 2391, 0, 0, 0, 0
42,2019-01-23 01:27:43pm, dynamic, 1_6_vs_2_6, true, LEFT, 2254, 0, 0, 0, 0
43,2019-01-23 01:27:45pm, dynamic, 1_6_vs_2_6, false, RIGHT, 2249, 0, 0, 0, 0
44,2019-01-23 01:27:48pm, dynamic, 1_6_vs_2_6, true, LEFT, 2432, 1, 0, 1, 0
45,2019-01-23 01:27:50pm, dynamic, 1_6_vs_2_6, true, LEFT, 2383, 1, 0, 1, 0
46,2019-01-23 01:27:53pm, dynamic, 1_6_vs_2_6, false, RIGHT, 2424, 0, 0, 0, 0
47,2019-01-23 01:27:55pm, dynamic, 1_6_vs_2_6, true, LEFT, 2240, 0, 1, 0, 1
48,2019-01-23 01:27:57pm, dynamic, 1_6_vs_2_6, false, RIGHT, 2455, 0, 1, 1, 0
49,2019-01-23 01:28:00pm, dynamic, 1_6_vs_2_6, true, LEFT, 2457, 0, 0, 0, 0
50,2019-01-23 01:28:03pm, dynamic, 1_6_vs_2_6, true, LEFT, 3080, 1, 0, 1, 0
51,2019-01-23 01:28:05pm, dynamic, 1_6_vs_2_6, true, LEFT, 2688, 1, 1, 1, 1
52,2019-01-23 01:28:08pm, dynamic, 1_6_vs_2_6, true, LEFT, 2848, 0, 0, 0, 0
53,2019-01-23 01:28:11pm, dynamic, 1_6_vs_2_6, false, RIGHT, 2448, 0, 0, 0, 0
54,2019-01-23 01:28:13pm, dynamic, 1_6_vs_2_6, false, RIGHT, 2328, 0, 1, 1, 0
55,2019-01-23 01:28:15pm, dynamic, 1_6_vs_2_6, true, LEFT, 2352, 1, 0, 1, 0
56,2019-01-23 01:28:18pm, dynamic, 1_6_vs_2_6, true, LEFT, 2695, 1, 0, 1, 0
57,2019-01-23 01:28:21pm, dynamic, 1_6_vs_2_6, true, LEFT, 2582, 1, 0, 1, 0
58,2019-01-23 01:28:23pm, dynamic, 1_6_vs_2_6, true, LEFT, 2491, 0, 0, 0, 0
59,2019-01-23 01:28:26pm, dynamic, 1_6_vs_2_6, false, RIGHT, 2936, 0, 0, 0, 0
60,2019-01-23 01:28:28pm, dynamic, 1_6_vs_2_6, true, LEFT, 2488, 0, 1, 0, 1
61,2019-01-23 01:28:31pm, dynamic, 1_6_vs_2_6, false, RIGHT, 2351, 0, 1, 1, 0
62,2019-01-23 01:28:33pm, dynamic, 1_6_vs_2_6, true, LEFT, 2265, 0, 0, 0, 0
63,2019-01-23 01:28:35pm, dynamic, 1_6_vs_2_6, true, LEFT, 2215, 0, 0, 0, 0
64,2019-01-23 01:28:38pm, dynamic, 1_6_vs_2_6, true, LEFT, 2224, 0, 0, 0, 0
65,2019-01-23 01:28:40pm, dynamic, 1_6_vs_2_6, true, LEFT, 2201, 1, 0, 1, 0
66,2019-01-23 01:28:42pm, dynamic, 1_6_vs_2_6, true, LEFT, 2324, 0, 0, 0, 0
67,2019-01-23 01:28:45pm, dynamic, 1_6_vs_2_6, false, RIGHT, 2600, 0, 0, 0, 0
68,2019-01-23 01:28:48pm, dynamic, 1_6_vs_2_6, false, RIGHT, 2944, 1, 0, 0, 1
69,2019-01-23 01:28:51pm, dynamic, 1_6_vs_2_6, false, RIGHT, 3408, 0, 1, 1, 0
70,2019-01-23 01:28:54pm, dynamic, 1_6_vs_2_6, true, LEFT, 2889, 1, 0, 1, 0
71,2019-01-23 01:28:56pm, dynamic, 1_6_vs_2_6, true, LEFT, 2311, 0, 1, 0, 1
72,2019-01-23 01:28:59pm, dynamic, 1_6_vs_2_6, false, RIGHT, 2528, 0, 1, 1, 0
73,2019-01-23 01:29:02pm, dynamic, 1_6_vs_2_6, true, LEFT, 2975, 0, 0, 0, 0
74,2019-01-23 01:29:04pm, dynamic, 1_6_vs_2_6, true, LEFT, 2569, 0, 0, 0, 0
75,2019-01-23 01:29:06pm, dynamic, 1_6_vs_2_6, true, LEFT, 2231, 0, 0, 0, 0
76,2019-01-23 01:29:09pm, dynamic, 1_6_vs_2_6, false, RIGHT, 2297, 0, 1, 1, 0
77,2019-01-23 01:29:11pm, dynamic, 1_6_vs_2_6, false, RIGHT, 2328, 0, 0, 0, 0
78,2019-01-23 01:29:13pm, dynamic, 1_6_vs_2_6, false, RIGHT, 2192, 0, 1, 1, 0
79,2019-01-23 01:29:16pm, dynamic, 1_6_vs_2_6, true, LEFT, 2448, 1, 0, 1, 0
80,2019-01-23 01:29:18pm, dynamic, 1_6_vs_2_6, true, LEFT, 2560, 0, 0, 0, 0
81,2019-01-23 01:29:21pm, dynamic, 1_6_vs_2_6, false, RIGHT, 2912, 1, 0, 0, 1
82,2019-01-23 01:29:25pm, dynamic, 1_6_vs_2_6, false, RIGHT, 3120, 0, 0, 0, 0
83,2019-01-23 01:29:27pm, dynamic, 1_6_vs_2_6, true, LEFT, 2728, 0, 0, 0, 0
84,2019-01-23 01:29:30pm, dynamic, 1_6_vs_2_6, false, RIGHT, 2464, 0, 0, 0, 0
85,2019-01-23 01:29:32pm, dynamic, 1_6_vs_2_6, true, LEFT, 2336, 0, 0, 0, 0
86,2019-01-23 01:29:35pm, dynamic, 1_6_vs_2_6, false, RIGHT, 2624, 0, 1, 1, 0
87,2019-01-23 01:29:38pm, dynamic, 1_6_vs_2_6, true, LEFT, 3119, 0, 0, 0, 0
88,2019-01-23 01:29:40pm, dynamic, 1_6_vs_2_6, false, RIGHT, 2534, 1, 0, 0, 1
89,2019-01-23 01:29:43pm, dynamic, 1_6_vs_2_6, false, RIGHT, 2632, 1, 0, 0, 1
90,2019-01-23 01:29:45pm, dynamic, 1_6_vs_2_6, true, LEFT, 2672, 0, 0, 0, 0
91,2019-01-23 01:29:48pm, dynamic, 1_6_vs_2_6, false, RIGHT, 2441, 1, 0, 0, 1
92,2019-01-23 01:29:50pm, dynamic, 1_6_vs_2_6, false, RIGHT, 2472, 0, 0, 0, 0
93,2019-01-23 01:29:53pm, dynamic, 1_6_vs_2_6, true, LEFT, 2318, 0, 0, 0, 0
94,2019-01-23 01:29:55pm, dynamic, 1_6_vs_2_6, false, RIGHT, 2441, 0, 0, 0, 0
95,2019-01-23 01:29:58pm, dynamic, 1_6_vs_2_6, false, RIGHT, 2383, 0, 1, 1, 0
96,2019-01-23 01:30:00pm, dynamic, 1_6_vs_2_6, true, LEFT, 2281, 0, 0, 0, 0
97,2019-01-23 01:30:03pm, dynamic, 1_6_vs_2_6, false, RIGHT, 2599, 0, 0, 0, 0
98,2019-01-23 01:30:05pm, dynamic, 1_6_vs_2_6, true, LEFT, 2425, 0, 0, 0, 0
