trial_number, time, schedule_type, schedule_name, is_biased_choice, side_choice, RT, observed_reward, unobserved_reward, biased_reward, unbiased_reward
0,2019-01-23 12:16:52pm, dynamic, 1_6_vs_2_6, false, LEFT, 1783, 1, 1, 1, 1
1,2019-01-23 12:16:55pm, dynamic, 1_6_vs_2_6, false, LEFT, 3491, 0, 0, 0, 0
2,2019-01-23 12:16:58pm, dynamic, 1_6_vs_2_6, false, LEFT, 2596, 0, 1, 1, 0
3,2019-01-23 12:17:00pm, dynamic, 1_6_vs_2_6, true, RIGHT, 2626, 0, 0, 0, 0
4,2019-01-23 12:17:03pm, dynamic, 1_6_vs_2_6, false, LEFT, 2611, 0, 1, 1, 0
5,2019-01-23 12:17:06pm, dynamic, 1_6_vs_2_6, false, LEFT, 2452, 0, 0, 0, 0
6,2019-01-23 12:17:08pm, dynamic, 1_6_vs_2_6, false, LEFT, 2224, 1, 1, 1, 1
7,2019-01-23 12:17:10pm, dynamic, 1_6_vs_2_6, false, LEFT, 2110, 0, 0, 0, 0
8,2019-01-23 12:17:12pm, dynamic, 1_6_vs_2_6, false, LEFT, 2101, 0, 0, 0, 0
9,2019-01-23 12:17:14pm, dynamic, 1_6_vs_2_6, false, LEFT, 2094, 0, 0, 0, 0
10,2019-01-23 12:17:16pm, dynamic, 1_6_vs_2_6, false, LEFT, 2021, 0, 0, 0, 0
11,2019-01-23 12:17:18pm, dynamic, 1_6_vs_2_6, false, LEFT, 2093, 1, 0, 0, 1
12,2019-01-23 12:17:20pm, dynamic, 1_6_vs_2_6, false, LEFT, 2041, 0, 0, 0, 0
13,2019-01-23 12:17:23pm, dynamic, 1_6_vs_2_6, true, RIGHT, 2350, 0, 0, 0, 0
14,2019-01-23 12:17:25pm, dynamic, 1_6_vs_2_6, true, RIGHT, 2050, 0, 0, 0, 0
15,2019-01-23 12:17:27pm, dynamic, 1_6_vs_2_6, true, RIGHT, 2021, 1, 0, 1, 0
16,2019-01-23 12:17:29pm, dynamic, 1_6_vs_2_6, true, RIGHT, 2036, 0, 0, 0, 0
17,2019-01-23 12:17:31pm, dynamic, 1_6_vs_2_6, true, RIGHT, 2008, 0, 0, 0, 0
18,2019-01-23 12:17:33pm, dynamic, 1_6_vs_2_6, true, RIGHT, 2285, 0, 1, 0, 1
19,2019-01-23 12:17:36pm, dynamic, 1_6_vs_2_6, true, RIGHT, 2624, 1, 0, 1, 0
20,2019-01-23 12:17:38pm, dynamic, 1_6_vs_2_6, true, RIGHT, 2002, 0, 0, 0, 0
21,2019-01-23 12:17:40pm, dynamic, 1_6_vs_2_6, true, RIGHT, 1986, 0, 0, 0, 0
22,2019-01-23 12:17:42pm, dynamic, 1_6_vs_2_6, true, RIGHT, 2021, 0, 0, 0, 0
23,2019-01-23 12:17:44pm, dynamic, 1_6_vs_2_6, true, RIGHT, 2020, 1, 0, 1, 0
24,2019-01-23 12:17:46pm, dynamic, 1_6_vs_2_6, true, RIGHT, 2148, 1, 0, 1, 0
25,2019-01-23 12:17:48pm, dynamic, 1_6_vs_2_6, true, RIGHT, 2038, 0, 1, 0, 1
26,2019-01-23 12:17:50pm, dynamic, 1_6_vs_2_6, true, RIGHT, 2005, 0, 0, 0, 0
27,2019-01-23 12:17:52pm, dynamic, 1_6_vs_2_6, true, RIGHT, 1986, 0, 0, 0, 0
28,2019-01-23 12:17:54pm, dynamic, 1_6_vs_2_6, true, RIGHT, 2041, 0, 0, 0, 0
29,2019-01-23 12:17:56pm, dynamic, 1_6_vs_2_6, true, RIGHT, 2603, 1, 0, 1, 0
30,2019-01-23 12:17:59pm, dynamic, 1_6_vs_2_6, true, RIGHT, 2340, 0, 0, 0, 0
31,2019-01-23 12:18:01pm, dynamic, 1_6_vs_2_6, true, RIGHT, 2013, 1, 0, 1, 0
32,2019-01-23 12:18:03pm, dynamic, 1_6_vs_2_6, true, RIGHT, 1906, 0, 0, 0, 0
33,2019-01-23 12:18:05pm, dynamic, 1_6_vs_2_6, true, RIGHT, 2006, 0, 0, 0, 0
34,2019-01-23 12:18:07pm, dynamic, 1_6_vs_2_6, true, RIGHT, 1968, 0, 1, 0, 1
35,2019-01-23 12:18:09pm, dynamic, 1_6_vs_2_6, true, RIGHT, 2019, 0, 0, 0, 0
36,2019-01-23 12:18:11pm, dynamic, 1_6_vs_2_6, true, RIGHT, 1982, 1, 0, 1, 0
37,2019-01-23 12:18:13pm, dynamic, 1_6_vs_2_6, true, RIGHT, 1954, 0, 0, 0, 0
38,2019-01-23 12:18:15pm, dynamic, 1_6_vs_2_6, true, RIGHT, 1992, 0, 0, 0, 0
39,2019-01-23 12:18:17pm, dynamic, 1_6_vs_2_6, true, RIGHT, 2007, 1, 0, 1, 0
40,2019-01-23 12:18:19pm, dynamic, 1_6_vs_2_6, true, RIGHT, 1952, 0, 0, 0, 0
41,2019-01-23 12:18:21pm, dynamic, 1_6_vs_2_6, true, RIGHT, 1963, 0, 0, 0, 0
42,2019-01-23 12:18:23pm, dynamic, 1_6_vs_2_6, true, RIGHT, 2018, 0, 1, 0, 1
43,2019-01-23 12:18:25pm, dynamic, 1_6_vs_2_6, true, RIGHT, 2101, 0, 0, 0, 0
44,2019-01-23 12:18:27pm, dynamic, 1_6_vs_2_6, true, RIGHT, 2251, 0, 1, 0, 1
45,2019-01-23 12:18:29pm, dynamic, 1_6_vs_2_6, true, RIGHT, 1938, 1, 0, 1, 0
46,2019-01-23 12:18:31pm, dynamic, 1_6_vs_2_6, true, RIGHT, 2053, 1, 0, 1, 0
47,2019-01-23 12:18:33pm, dynamic, 1_6_vs_2_6, true, RIGHT, 1966, 0, 0, 0, 0
48,2019-01-23 12:18:35pm, dynamic, 1_6_vs_2_6, true, RIGHT, 1961, 0, 1, 0, 1
49,2019-01-23 12:18:37pm, dynamic, 1_6_vs_2_6, true, RIGHT, 1937, 1, 0, 1, 0
50,2019-01-23 12:18:39pm, dynamic, 1_6_vs_2_6, true, RIGHT, 1981, 0, 0, 0, 0
51,2019-01-23 12:18:41pm, dynamic, 1_6_vs_2_6, true, RIGHT, 1974, 0, 0, 0, 0
52,2019-01-23 12:18:43pm, dynamic, 1_6_vs_2_6, true, RIGHT, 1973, 1, 0, 1, 0
53,2019-01-23 12:18:45pm, dynamic, 1_6_vs_2_6, true, RIGHT, 2783, 1, 0, 1, 0
54,2019-01-23 12:18:47pm, dynamic, 1_6_vs_2_6, true, RIGHT, 1981, 1, 0, 1, 0
55,2019-01-23 12:18:49pm, dynamic, 1_6_vs_2_6, true, RIGHT, 1950, 1, 1, 1, 1
56,2019-01-23 12:18:51pm, dynamic, 1_6_vs_2_6, true, RIGHT, 1974, 0, 0, 0, 0
57,2019-01-23 12:18:53pm, dynamic, 1_6_vs_2_6, true, RIGHT, 1968, 0, 0, 0, 0
58,2019-01-23 12:18:55pm, dynamic, 1_6_vs_2_6, true, RIGHT, 1980, 1, 0, 1, 0
59,2019-01-23 12:18:57pm, dynamic, 1_6_vs_2_6, true, RIGHT, 1945, 0, 0, 0, 0
60,2019-01-23 12:18:59pm, dynamic, 1_6_vs_2_6, true, RIGHT, 1973, 0, 0, 0, 0
61,2019-01-23 12:19:01pm, dynamic, 1_6_vs_2_6, true, RIGHT, 1970, 0, 1, 0, 1
62,2019-01-23 12:19:03pm, dynamic, 1_6_vs_2_6, true, RIGHT, 1968, 1, 0, 1, 0
63,2019-01-23 12:19:05pm, dynamic, 1_6_vs_2_6, true, RIGHT, 2036, 0, 0, 0, 0
64,2019-01-23 12:19:07pm, dynamic, 1_6_vs_2_6, true, RIGHT, 1998, 0, 0, 0, 0
65,2019-01-23 12:19:09pm, dynamic, 1_6_vs_2_6, true, RIGHT, 2003, 1, 0, 1, 0
66,2019-01-23 12:19:11pm, dynamic, 1_6_vs_2_6, true, RIGHT, 1950, 0, 0, 0, 0
67,2019-01-23 12:19:13pm, dynamic, 1_6_vs_2_6, true, RIGHT, 1964, 1, 0, 1, 0
68,2019-01-23 12:19:15pm, dynamic, 1_6_vs_2_6, true, RIGHT, 1994, 0, 0, 0, 0
69,2019-01-23 12:19:17pm, dynamic, 1_6_vs_2_6, true, RIGHT, 1902, 0, 0, 0, 0
70,2019-01-23 12:19:19pm, dynamic, 1_6_vs_2_6, true, RIGHT, 2279, 1, 0, 1, 0
71,2019-01-23 12:19:21pm, dynamic, 1_6_vs_2_6, true, RIGHT, 1994, 1, 0, 1, 0
72,2019-01-23 12:19:23pm, dynamic, 1_6_vs_2_6, true, RIGHT, 2010, 1, 0, 1, 0
73,2019-01-23 12:19:25pm, dynamic, 1_6_vs_2_6, true, RIGHT, 1983, 0, 0, 0, 0
74,2019-01-23 12:19:27pm, dynamic, 1_6_vs_2_6, true, RIGHT, 1960, 0, 0, 0, 0
75,2019-01-23 12:19:29pm, dynamic, 1_6_vs_2_6, true, RIGHT, 1957, 0, 0, 0, 0
76,2019-01-23 12:19:31pm, dynamic, 1_6_vs_2_6, true, RIGHT, 1973, 0, 0, 0, 0
77,2019-01-23 12:19:33pm, dynamic, 1_6_vs_2_6, true, RIGHT, 1949, 1, 0, 1, 0
78,2019-01-23 12:19:35pm, dynamic, 1_6_vs_2_6, true, RIGHT, 1974, 0, 0, 0, 0
79,2019-01-23 12:19:37pm, dynamic, 1_6_vs_2_6, true, RIGHT, 2195, 0, 0, 0, 0
80,2019-01-23 12:19:39pm, dynamic, 1_6_vs_2_6, true, RIGHT, 1994, 0, 1, 0, 1
81,2019-01-23 12:19:41pm, dynamic, 1_6_vs_2_6, true, RIGHT, 1958, 0, 1, 0, 1
82,2019-01-23 12:19:43pm, dynamic, 1_6_vs_2_6, true, RIGHT, 1932, 1, 0, 1, 0
83,2019-01-23 12:19:45pm, dynamic, 1_6_vs_2_6, true, RIGHT, 1973, 0, 0, 0, 0
84,2019-01-23 12:19:47pm, dynamic, 1_6_vs_2_6, true, RIGHT, 2279, 1, 0, 1, 0
85,2019-01-23 12:19:49pm, dynamic, 1_6_vs_2_6, true, RIGHT, 1977, 0, 0, 0, 0
86,2019-01-23 12:19:51pm, dynamic, 1_6_vs_2_6, true, RIGHT, 1938, 0, 0, 0, 0
87,2019-01-23 12:19:53pm, dynamic, 1_6_vs_2_6, true, RIGHT, 1949, 0, 0, 0, 0
88,2019-01-23 12:19:55pm, dynamic, 1_6_vs_2_6, true, RIGHT, 1979, 1, 0, 1, 0
89,2019-01-23 12:19:57pm, dynamic, 1_6_vs_2_6, true, RIGHT, 1975, 0, 0, 0, 0
90,2019-01-23 12:19:59pm, dynamic, 1_6_vs_2_6, true, RIGHT, 1956, 0, 0, 0, 0
91,2019-01-23 12:20:01pm, dynamic, 1_6_vs_2_6, true, RIGHT, 1960, 0, 0, 0, 0
92,2019-01-23 12:20:03pm, dynamic, 1_6_vs_2_6, true, RIGHT, 1950, 0, 0, 0, 0
93,2019-01-23 12:20:05pm, dynamic, 1_6_vs_2_6, true, RIGHT, 1954, 1, 1, 1, 1
94,2019-01-23 12:20:07pm, dynamic, 1_6_vs_2_6, true, RIGHT, 1967, 0, 0, 0, 0
95,2019-01-23 12:20:09pm, dynamic, 1_6_vs_2_6, true, RIGHT, 1968, 1, 0, 1, 0
96,2019-01-23 12:20:11pm, dynamic, 1_6_vs_2_6, true, RIGHT, 1934, 0, 1, 0, 1
97,2019-01-23 12:20:13pm, dynamic, 1_6_vs_2_6, true, RIGHT, 2474, 0, 0, 0, 0
98,2019-01-23 12:20:15pm, dynamic, 1_6_vs_2_6, true, RIGHT, 1989, 0, 0, 0, 0
