trial_number, time, schedule_type, schedule_name, is_biased_choice, side_choice, RT, observed_reward, unobserved_reward, biased_reward, unbiased_reward
0,2019-01-23 01:25:16pm, dynamic, 1_6_vs_2_6, true, LEFT, 5610, 0, 0, 0, 0
1,2019-01-23 01:25:20pm, dynamic, 1_6_vs_2_6, false, RIGHT, 4048, 0, 0, 0, 0
2,2019-01-23 01:25:24pm, dynamic, 1_6_vs_2_6, false, RIGHT, 4472, 0, 1, 1, 0
3,2019-01-23 01:25:28pm, dynamic, 1_6_vs_2_6, true, LEFT, 3553, 1, 0, 1, 0
4,2019-01-23 01:25:31pm, dynamic, 1_6_vs_2_6, true, LEFT, 3567, 1, 0, 1, 0
5,2019-01-23 01:25:35pm, dynamic, 1_6_vs_2_6, true, LEFT, 3656, 1, 0, 1, 0
6,2019-01-23 01:25:39pm, dynamic, 1_6_vs_2_6, true, LEFT, 3697, 0, 0, 0, 0
7,2019-01-23 01:25:41pm, dynamic, 1_6_vs_2_6, true, LEFT, 2959, 0, 0, 0, 0
8,2019-01-23 01:25:45pm, dynamic, 1_6_vs_2_6, true, LEFT, 3041, 0, 1, 0, 1
9,2019-01-23 01:25:48pm, dynamic, 1_6_vs_2_6, false, RIGHT, 3143, 0, 0, 0, 0
10,2019-01-23 01:25:51pm, dynamic, 1_6_vs_2_6, true, LEFT, 2921, 0, 0, 0, 0
11,2019-01-23 01:25:54pm, dynamic, 1_6_vs_2_6, true, LEFT, 2935, 1, 1, 1, 1
12,2019-01-23 01:25:57pm, dynamic, 1_6_vs_2_6, true, LEFT, 3257, 0, 0, 0, 0
13,2019-01-23 01:26:01pm, dynamic, 1_6_vs_2_6, false, RIGHT, 3728, 0, 1, 1, 0
14,2019-01-23 01:26:03pm, dynamic, 1_6_vs_2_6, false, RIGHT, 2671, 0, 0, 0, 0
15,2019-01-23 01:26:06pm, dynamic, 1_6_vs_2_6, true, LEFT, 2600, 0, 0, 0, 0
16,2019-01-23 01:26:09pm, dynamic, 1_6_vs_2_6, true, LEFT, 2977, 0, 1, 0, 1
17,2019-01-23 01:26:11pm, dynamic, 1_6_vs_2_6, false, RIGHT, 2503, 0, 0, 0, 0
18,2019-01-23 01:26:14pm, dynamic, 1_6_vs_2_6, true, LEFT, 2560, 0, 0, 0, 0
19,2019-01-23 01:26:17pm, dynamic, 1_6_vs_2_6, true, LEFT, 2809, 0, 0, 0, 0
20,2019-01-23 01:26:19pm, dynamic, 1_6_vs_2_6, true, LEFT, 2583, 1, 0, 1, 0
21,2019-01-23 01:26:22pm, dynamic, 1_6_vs_2_6, true, LEFT, 2697, 0, 0, 0, 0
22,2019-01-23 01:26:25pm, dynamic, 1_6_vs_2_6, false, RIGHT, 2632, 0, 0, 0, 0
23,2019-01-23 01:26:27pm, dynamic, 1_6_vs_2_6, true, LEFT, 2584, 0, 1, 0, 1
24,2019-01-23 01:26:30pm, dynamic, 1_6_vs_2_6, true, LEFT, 2624, 0, 0, 0, 0
25,2019-01-23 01:26:32pm, dynamic, 1_6_vs_2_6, true, LEFT, 2496, 0, 0, 0, 0
26,2019-01-23 01:26:36pm, dynamic, 1_6_vs_2_6, false, RIGHT, 3328, 0, 0, 0, 0
27,2019-01-23 01:26:38pm, dynamic, 1_6_vs_2_6, true, LEFT, 2609, 0, 0, 0, 0
28,2019-01-23 01:26:41pm, dynamic, 1_6_vs_2_6, false, RIGHT, 2702, 0, 0, 0, 0
29,2019-01-23 01:26:44pm, dynamic, 1_6_vs_2_6, false, RIGHT, 2801, 0, 0, 0, 0
30,2019-01-23 01:26:46pm, dynamic, 1_6_vs_2_6, true, LEFT, 2664, 1, 0, 1, 0
31,2019-01-23 01:26:49pm, dynamic, 1_6_vs_2_6, true, LEFT, 2839, 0, 0, 0, 0
32,2019-01-23 01:26:52pm, dynamic, 1_6_vs_2_6, false, RIGHT, 3001, 0, 0, 0, 0
33,2019-01-23 01:26:55pm, dynamic, 1_6_vs_2_6, false, RIGHT, 2727, 0, 0, 0, 0
34,2019-01-23 01:26:57pm, dynamic, 1_6_vs_2_6, true, LEFT, 2536, 0, 0, 0, 0
35,2019-01-23 01:27:00pm, dynamic, 1_6_vs_2_6, true, LEFT, 2745, 0, 0, 0, 0
36,2019-01-23 01:27:03pm, dynamic, 1_6_vs_2_6, true, LEFT, 2520, 1, 0, 1, 0
37,2019-01-23 01:27:05pm, dynamic, 1_6_vs_2_6, true, LEFT, 2719, 0, 0, 0, 0
38,2019-01-23 01:27:08pm, dynamic, 1_6_vs_2_6, true, LEFT, 2609, 0, 0, 0, 0
39,2019-01-23 01:27:11pm, dynamic, 1_6_vs_2_6, false, RIGHT, 2705, 0, 1, 1, 0
40,2019-01-23 01:27:14pm, dynamic, 1_6_vs_2_6, false, RIGHT, 3087, 1, 0, 0, 1
41,2019-01-23 01:27:17pm, dynamic, 1_6_vs_2_6, true, LEFT, 2871, 0, 0, 0, 0
42,2019-01-23 01:27:19pm, dynamic, 1_6_vs_2_6, true, LEFT, 2640, 0, 0, 0, 0
43,2019-01-23 01:27:22pm, dynamic, 1_6_vs_2_6, false, RIGHT, 2664, 0, 1, 1, 0
44,2019-01-23 01:27:25pm, dynamic, 1_6_vs_2_6, false, RIGHT, 2648, 1, 0, 0, 1
45,2019-01-23 01:27:28pm, dynamic, 1_6_vs_2_6, true, LEFT, 3169, 0, 1, 0, 1
46,2019-01-23 01:27:30pm, dynamic, 1_6_vs_2_6, true, LEFT, 2624, 0, 0, 0, 0
47,2019-01-23 01:27:33pm, dynamic, 1_6_vs_2_6, false, RIGHT, 2831, 0, 1, 1, 0
48,2019-01-23 01:27:36pm, dynamic, 1_6_vs_2_6, false, RIGHT, 2585, 0, 1, 1, 0
49,2019-01-23 01:27:39pm, dynamic, 1_6_vs_2_6, true, LEFT, 2664, 0, 0, 0, 0
50,2019-01-23 01:27:41pm, dynamic, 1_6_vs_2_6, true, LEFT, 2623, 0, 1, 0, 1
51,2019-01-23 01:27:44pm, dynamic, 1_6_vs_2_6, false, RIGHT, 2656, 0, 0, 0, 0
52,2019-01-23 01:27:46pm, dynamic, 1_6_vs_2_6, false, RIGHT, 2569, 0, 0, 0, 0
53,2019-01-23 01:27:49pm, dynamic, 1_6_vs_2_6, true, LEFT, 2711, 0, 1, 0, 1
54,2019-01-23 01:27:53pm, dynamic, 1_6_vs_2_6, true, LEFT, 3377, 1, 0, 1, 0
55,2019-01-23 01:28:02pm, dynamic, 1_6_vs_2_6, false, RIGHT, 9944, 1, 1, 1, 1
56,2019-01-23 01:28:05pm, dynamic, 1_6_vs_2_6, false, RIGHT, 2904, 0, 0, 0, 0
57,2019-01-23 01:28:08pm, dynamic, 1_6_vs_2_6, true, LEFT, 2759, 1, 0, 1, 0
58,2019-01-23 01:28:11pm, dynamic, 1_6_vs_2_6, true, LEFT, 2729, 0, 0, 0, 0
59,2019-01-23 01:28:13pm, dynamic, 1_6_vs_2_6, true, LEFT, 2576, 1, 0, 1, 0
60,2019-01-23 01:28:16pm, dynamic, 1_6_vs_2_6, true, LEFT, 2559, 1, 0, 1, 0
61,2019-01-23 01:28:18pm, dynamic, 1_6_vs_2_6, true, LEFT, 2513, 0, 1, 0, 1
62,2019-01-23 01:28:21pm, dynamic, 1_6_vs_2_6, false, RIGHT, 2592, 0, 0, 0, 0
63,2019-01-23 01:28:24pm, dynamic, 1_6_vs_2_6, true, LEFT, 2488, 1, 0, 1, 0
64,2019-01-23 01:28:27pm, dynamic, 1_6_vs_2_6, true, LEFT, 3223, 0, 1, 0, 1
65,2019-01-23 01:28:30pm, dynamic, 1_6_vs_2_6, true, LEFT, 2834, 0, 0, 0, 0
66,2019-01-23 01:28:32pm, dynamic, 1_6_vs_2_6, false, RIGHT, 2543, 0, 0, 0, 0
67,2019-01-23 01:28:35pm, dynamic, 1_6_vs_2_6, true, LEFT, 2520, 0, 0, 0, 0
68,2019-01-23 01:28:57pm, dynamic, 1_6_vs_2_6, false, RIGHT, 22200, 0, 0, 0, 0
69,2019-01-23 01:28:59pm, dynamic, 1_6_vs_2_6, true, LEFT, 2512, 1, 0, 1, 0
70,2019-01-23 01:29:02pm, dynamic, 1_6_vs_2_6, true, LEFT, 2536, 0, 0, 0, 0
71,2019-01-23 01:29:05pm, dynamic, 1_6_vs_2_6, true, LEFT, 3432, 0, 0, 0, 0
72,2019-01-23 01:29:08pm, dynamic, 1_6_vs_2_6, false, RIGHT, 2559, 1, 0, 0, 1
73,2019-01-23 01:29:10pm, dynamic, 1_6_vs_2_6, false, RIGHT, 2585, 0, 0, 0, 0
74,2019-01-23 01:29:14pm, dynamic, 1_6_vs_2_6, false, RIGHT, 3216, 0, 0, 0, 0
75,2019-01-23 01:29:16pm, dynamic, 1_6_vs_2_6, true, LEFT, 2625, 0, 0, 0, 0
76,2019-01-23 01:29:19pm, dynamic, 1_6_vs_2_6, true, LEFT, 2895, 0, 1, 0, 1
77,2019-01-23 01:29:22pm, dynamic, 1_6_vs_2_6, false, RIGHT, 2512, 0, 1, 1, 0
78,2019-01-23 01:29:24pm, dynamic, 1_6_vs_2_6, false, RIGHT, 2488, 0, 0, 0, 0
79,2019-01-23 01:29:27pm, dynamic, 1_6_vs_2_6, false, RIGHT, 2496, 0, 1, 1, 0
80,2019-01-23 01:29:29pm, dynamic, 1_6_vs_2_6, true, LEFT, 2560, 1, 0, 1, 0
81,2019-01-23 01:29:32pm, dynamic, 1_6_vs_2_6, true, LEFT, 2856, 0, 1, 0, 1
82,2019-01-23 01:29:35pm, dynamic, 1_6_vs_2_6, true, LEFT, 2560, 1, 0, 1, 0
83,2019-01-23 01:29:38pm, dynamic, 1_6_vs_2_6, true, LEFT, 3025, 1, 0, 1, 0
84,2019-01-23 01:29:41pm, dynamic, 1_6_vs_2_6, true, LEFT, 3023, 0, 0, 0, 0
85,2019-01-23 01:29:44pm, dynamic, 1_6_vs_2_6, true, LEFT, 2767, 1, 0, 1, 0
86,2019-01-23 01:29:46pm, dynamic, 1_6_vs_2_6, true, LEFT, 2545, 0, 0, 0, 0
87,2019-01-23 01:29:49pm, dynamic, 1_6_vs_2_6, true, LEFT, 2784, 0, 0, 0, 0
88,2019-01-23 01:29:52pm, dynamic, 1_6_vs_2_6, true, LEFT, 2776, 1, 0, 1, 0
89,2019-01-23 01:29:54pm, dynamic, 1_6_vs_2_6, true, LEFT, 2672, 1, 0, 1, 0
90,2019-01-23 01:29:57pm, dynamic, 1_6_vs_2_6, true, LEFT, 2568, 1, 0, 1, 0
91,2019-01-23 01:29:59pm, dynamic, 1_6_vs_2_6, true, LEFT, 2376, 0, 0, 0, 0
92,2019-01-23 01:30:02pm, dynamic, 1_6_vs_2_6, true, LEFT, 2841, 0, 1, 0, 1
93,2019-01-23 01:30:05pm, dynamic, 1_6_vs_2_6, false, RIGHT, 2504, 0, 0, 0, 0
94,2019-01-23 01:30:07pm, dynamic, 1_6_vs_2_6, true, LEFT, 2911, 1, 0, 1, 0
95,2019-01-23 01:30:10pm, dynamic, 1_6_vs_2_6, true, LEFT, 2576, 1, 0, 1, 0
96,2019-01-23 01:30:13pm, dynamic, 1_6_vs_2_6, true, LEFT, 2504, 0, 0, 0, 0
97,2019-01-23 01:30:15pm, dynamic, 1_6_vs_2_6, true, LEFT, 2567, 0, 0, 0, 0
98,2019-01-23 01:30:18pm, dynamic, 1_6_vs_2_6, false, RIGHT, 2376, 0, 1, 1, 0
99,2019-01-23 01:30:20pm, dynamic, 1_6_vs_2_6, true, LEFT, 2584, 1, 0, 1, 0
