trial_number, time, schedule_type, schedule_name, is_biased_choice, side_choice, RT, observed_reward, unobserved_reward, biased_reward, unbiased_reward
0,2019-01-23 12:12:10pm, dynamic, 1_6_vs_2_6, true, RIGHT, 1528, 0, 1, 0, 1
1,2019-01-23 12:12:13pm, dynamic, 1_6_vs_2_6, false, LEFT, 2812, 0, 0, 0, 0
2,2019-01-23 12:12:15pm, dynamic, 1_6_vs_2_6, false, LEFT, 2428, 0, 0, 0, 0
3,2019-01-23 12:12:18pm, dynamic, 1_6_vs_2_6, true, RIGHT, 2721, 0, 0, 0, 0
4,2019-01-23 12:12:21pm, dynamic, 1_6_vs_2_6, true, RIGHT, 2965, 0, 0, 0, 0
5,2019-01-23 12:12:23pm, dynamic, 1_6_vs_2_6, true, RIGHT, 2358, 0, 0, 0, 0
6,2019-01-23 12:12:26pm, dynamic, 1_6_vs_2_6, true, RIGHT, 2469, 0, 0, 0, 0
7,2019-01-23 12:12:28pm, dynamic, 1_6_vs_2_6, false, LEFT, 2128, 0, 0, 0, 0
8,2019-01-23 12:12:30pm, dynamic, 1_6_vs_2_6, true, RIGHT, 2095, 0, 0, 0, 0
9,2019-01-23 12:12:32pm, dynamic, 1_6_vs_2_6, false, LEFT, 2451, 0, 0, 0, 0
10,2019-01-23 12:12:35pm, dynamic, 1_6_vs_2_6, true, RIGHT, 2542, 1, 0, 1, 0
11,2019-01-23 12:12:38pm, dynamic, 1_6_vs_2_6, true, RIGHT, 2721, 0, 1, 0, 1
12,2019-01-23 12:12:40pm, dynamic, 1_6_vs_2_6, false, LEFT, 2059, 0, 1, 1, 0
13,2019-01-23 12:12:42pm, dynamic, 1_6_vs_2_6, true, RIGHT, 2226, 0, 0, 0, 0
14,2019-01-23 12:12:44pm, dynamic, 1_6_vs_2_6, false, LEFT, 2192, 0, 1, 1, 0
15,2019-01-23 12:12:46pm, dynamic, 1_6_vs_2_6, true, RIGHT, 2279, 1, 0, 1, 0
16,2019-01-23 12:12:49pm, dynamic, 1_6_vs_2_6, false, LEFT, 2318, 1, 1, 1, 1
17,2019-01-23 12:12:51pm, dynamic, 1_6_vs_2_6, true, RIGHT, 2185, 0, 0, 0, 0
18,2019-01-23 12:12:53pm, dynamic, 1_6_vs_2_6, false, LEFT, 2506, 0, 1, 1, 0
19,2019-01-23 12:12:55pm, dynamic, 1_6_vs_2_6, true, RIGHT, 2156, 0, 1, 0, 1
20,2019-01-23 12:12:58pm, dynamic, 1_6_vs_2_6, false, LEFT, 2211, 1, 0, 0, 1
21,2019-01-23 12:13:00pm, dynamic, 1_6_vs_2_6, false, LEFT, 2152, 1, 1, 1, 1
22,2019-01-23 12:13:02pm, dynamic, 1_6_vs_2_6, false, LEFT, 2075, 0, 0, 0, 0
23,2019-01-23 12:13:04pm, dynamic, 1_6_vs_2_6, true, RIGHT, 2032, 0, 0, 0, 0
24,2019-01-23 12:13:06pm, dynamic, 1_6_vs_2_6, false, LEFT, 2102, 0, 0, 0, 0
25,2019-01-23 12:13:08pm, dynamic, 1_6_vs_2_6, false, LEFT, 2071, 0, 1, 1, 0
26,2019-01-23 12:13:10pm, dynamic, 1_6_vs_2_6, false, LEFT, 2131, 0, 1, 1, 0
27,2019-01-23 12:13:12pm, dynamic, 1_6_vs_2_6, false, LEFT, 2133, 0, 0, 0, 0
28,2019-01-23 12:13:15pm, dynamic, 1_6_vs_2_6, false, LEFT, 2471, 0, 1, 1, 0
29,2019-01-23 12:13:17pm, dynamic, 1_6_vs_2_6, false, LEFT, 2096, 0, 0, 0, 0
30,2019-01-23 12:13:19pm, dynamic, 1_6_vs_2_6, true, RIGHT, 2080, 0, 0, 0, 0
31,2019-01-23 12:13:22pm, dynamic, 1_6_vs_2_6, true, RIGHT, 2784, 1, 0, 1, 0
32,2019-01-23 12:13:24pm, dynamic, 1_6_vs_2_6, true, RIGHT, 2041, 0, 0, 0, 0
33,2019-01-23 12:13:26pm, dynamic, 1_6_vs_2_6, true, RIGHT, 2043, 0, 0, 0, 0
34,2019-01-23 12:13:28pm, dynamic, 1_6_vs_2_6, true, RIGHT, 2289, 0, 0, 0, 0
35,2019-01-23 12:13:30pm, dynamic, 1_6_vs_2_6, true, RIGHT, 2053, 0, 0, 0, 0
36,2019-01-23 12:13:32pm, dynamic, 1_6_vs_2_6, true, RIGHT, 2146, 0, 0, 0, 0
37,2019-01-23 12:13:35pm, dynamic, 1_6_vs_2_6, true, RIGHT, 2145, 0, 0, 0, 0
38,2019-01-23 12:13:37pm, dynamic, 1_6_vs_2_6, true, RIGHT, 2137, 0, 0, 0, 0
39,2019-01-23 12:13:39pm, dynamic, 1_6_vs_2_6, true, RIGHT, 2095, 0, 0, 0, 0
40,2019-01-23 12:13:41pm, dynamic, 1_6_vs_2_6, false, LEFT, 2332, 0, 0, 0, 0
41,2019-01-23 12:13:43pm, dynamic, 1_6_vs_2_6, true, RIGHT, 2276, 1, 0, 1, 0
42,2019-01-23 12:13:46pm, dynamic, 1_6_vs_2_6, false, LEFT, 2546, 0, 0, 0, 0
43,2019-01-23 12:13:48pm, dynamic, 1_6_vs_2_6, false, LEFT, 2490, 1, 1, 1, 1
44,2019-01-23 12:13:51pm, dynamic, 1_6_vs_2_6, false, LEFT, 2454, 0, 1, 1, 0
45,2019-01-23 12:13:53pm, dynamic, 1_6_vs_2_6, false, LEFT, 2206, 0, 0, 0, 0
46,2019-01-23 12:13:55pm, dynamic, 1_6_vs_2_6, false, LEFT, 2059, 0, 1, 1, 0
47,2019-01-23 12:13:57pm, dynamic, 1_6_vs_2_6, false, LEFT, 2014, 0, 0, 0, 0
48,2019-01-23 12:13:59pm, dynamic, 1_6_vs_2_6, false, LEFT, 2030, 0, 0, 0, 0
49,2019-01-23 12:14:01pm, dynamic, 1_6_vs_2_6, false, LEFT, 2068, 0, 0, 0, 0
50,2019-01-23 12:14:04pm, dynamic, 1_6_vs_2_6, false, LEFT, 2562, 0, 1, 1, 0
51,2019-01-23 12:14:06pm, dynamic, 1_6_vs_2_6, true, RIGHT, 2322, 0, 0, 0, 0
52,2019-01-23 12:14:08pm, dynamic, 1_6_vs_2_6, true, RIGHT, 2075, 0, 1, 0, 1
53,2019-01-23 12:14:11pm, dynamic, 1_6_vs_2_6, false, LEFT, 2364, 0, 0, 0, 0
54,2019-01-23 12:14:13pm, dynamic, 1_6_vs_2_6, false, LEFT, 2057, 0, 0, 0, 0
55,2019-01-23 12:14:15pm, dynamic, 1_6_vs_2_6, true, RIGHT, 2033, 1, 1, 1, 1
56,2019-01-23 12:14:17pm, dynamic, 1_6_vs_2_6, false, LEFT, 2485, 0, 0, 0, 0
57,2019-01-23 12:14:19pm, dynamic, 1_6_vs_2_6, true, RIGHT, 2011, 0, 0, 0, 0
58,2019-01-23 12:14:21pm, dynamic, 1_6_vs_2_6, false, LEFT, 1980, 0, 0, 0, 0
59,2019-01-23 12:14:24pm, dynamic, 1_6_vs_2_6, true, RIGHT, 2476, 0, 0, 0, 0
60,2019-01-23 12:14:26pm, dynamic, 1_6_vs_2_6, false, LEFT, 2050, 0, 0, 0, 0
61,2019-01-23 12:14:28pm, dynamic, 1_6_vs_2_6, true, RIGHT, 2216, 0, 0, 0, 0
62,2019-01-23 12:14:30pm, dynamic, 1_6_vs_2_6, false, LEFT, 2026, 0, 1, 1, 0
63,2019-01-23 12:14:32pm, dynamic, 1_6_vs_2_6, false, LEFT, 2361, 0, 1, 1, 0
64,2019-01-23 12:14:34pm, dynamic, 1_6_vs_2_6, true, RIGHT, 2136, 1, 1, 1, 1
65,2019-01-23 12:14:36pm, dynamic, 1_6_vs_2_6, true, RIGHT, 2081, 0, 0, 0, 0
66,2019-01-23 12:14:38pm, dynamic, 1_6_vs_2_6, true, RIGHT, 2012, 1, 0, 1, 0
67,2019-01-23 12:14:41pm, dynamic, 1_6_vs_2_6, true, RIGHT, 2057, 0, 0, 0, 0
68,2019-01-23 12:14:43pm, dynamic, 1_6_vs_2_6, true, RIGHT, 2032, 1, 0, 1, 0
69,2019-01-23 12:14:45pm, dynamic, 1_6_vs_2_6, true, RIGHT, 2001, 1, 0, 1, 0
70,2019-01-23 12:14:47pm, dynamic, 1_6_vs_2_6, true, RIGHT, 2144, 0, 1, 0, 1
71,2019-01-23 12:14:49pm, dynamic, 1_6_vs_2_6, true, RIGHT, 1915, 1, 0, 1, 0
72,2019-01-23 12:14:51pm, dynamic, 1_6_vs_2_6, true, RIGHT, 2704, 0, 0, 0, 0
73,2019-01-23 12:14:54pm, dynamic, 1_6_vs_2_6, true, RIGHT, 2513, 1, 0, 1, 0
74,2019-01-23 12:14:56pm, dynamic, 1_6_vs_2_6, true, RIGHT, 2230, 0, 0, 0, 0
75,2019-01-23 12:14:58pm, dynamic, 1_6_vs_2_6, true, RIGHT, 2105, 1, 0, 1, 0
76,2019-01-23 12:15:00pm, dynamic, 1_6_vs_2_6, true, RIGHT, 2048, 0, 1, 0, 1
77,2019-01-23 12:15:03pm, dynamic, 1_6_vs_2_6, true, RIGHT, 2726, 0, 0, 0, 0
78,2019-01-23 12:15:05pm, dynamic, 1_6_vs_2_6, true, RIGHT, 2503, 0, 0, 0, 0
79,2019-01-23 12:15:08pm, dynamic, 1_6_vs_2_6, true, RIGHT, 2456, 0, 0, 0, 0
80,2019-01-23 12:15:10pm, dynamic, 1_6_vs_2_6, false, LEFT, 2460, 0, 1, 1, 0
81,2019-01-23 12:15:13pm, dynamic, 1_6_vs_2_6, false, LEFT, 2713, 1, 0, 0, 1
82,2019-01-23 12:15:16pm, dynamic, 1_6_vs_2_6, false, LEFT, 2520, 0, 1, 1, 0
83,2019-01-23 12:15:18pm, dynamic, 1_6_vs_2_6, false, LEFT, 2381, 0, 1, 1, 0
84,2019-01-23 12:15:20pm, dynamic, 1_6_vs_2_6, true, RIGHT, 2259, 0, 0, 0, 0
85,2019-01-23 12:15:22pm, dynamic, 1_6_vs_2_6, true, RIGHT, 2218, 1, 1, 1, 1
86,2019-01-23 12:15:25pm, dynamic, 1_6_vs_2_6, true, RIGHT, 2262, 1, 0, 1, 0
87,2019-01-23 12:15:27pm, dynamic, 1_6_vs_2_6, true, RIGHT, 2221, 0, 0, 0, 0
88,2019-01-23 12:15:29pm, dynamic, 1_6_vs_2_6, true, RIGHT, 2041, 0, 0, 0, 0
89,2019-01-23 12:15:31pm, dynamic, 1_6_vs_2_6, true, RIGHT, 2020, 0, 0, 0, 0
90,2019-01-23 12:15:33pm, dynamic, 1_6_vs_2_6, true, RIGHT, 2241, 0, 0, 0, 0
91,2019-01-23 12:15:35pm, dynamic, 1_6_vs_2_6, true, RIGHT, 2003, 1, 1, 1, 1
92,2019-01-23 12:15:37pm, dynamic, 1_6_vs_2_6, true, RIGHT, 2042, 0, 0, 0, 0
93,2019-01-23 12:15:39pm, dynamic, 1_6_vs_2_6, true, RIGHT, 1978, 1, 0, 1, 0
94,2019-01-23 12:15:41pm, dynamic, 1_6_vs_2_6, true, RIGHT, 2021, 0, 0, 0, 0
95,2019-01-23 12:15:43pm, dynamic, 1_6_vs_2_6, true, RIGHT, 1968, 0, 0, 0, 0
96,2019-01-23 12:15:45pm, dynamic, 1_6_vs_2_6, true, RIGHT, 1951, 0, 0, 0, 0
97,2019-01-23 12:15:47pm, dynamic, 1_6_vs_2_6, true, RIGHT, 1990, 0, 0, 0, 0
98,2019-01-23 12:15:49pm, dynamic, 1_6_vs_2_6, true, RIGHT, 2064, 0, 0, 0, 0
99,2019-01-23 12:15:51pm, dynamic, 1_6_vs_2_6, true, RIGHT, 2006, 0, 1, 0, 1
