trial_number, time, schedule_type, schedule_name, is_biased_choice, side_choice, RT, observed_reward, unobserved_reward, biased_reward, unbiased_reward
0,2019-01-24 09:58:53am, dynamic, 1_6_vs_2_6, true, LEFT, 2920, 0, 0, 0, 0
1,2019-01-24 09:58:56am, dynamic, 1_6_vs_2_6, false, RIGHT, 2967, 0, 0, 0, 0
2,2019-01-24 09:58:58am, dynamic, 1_6_vs_2_6, false, RIGHT, 2336, 0, 0, 0, 0
3,2019-01-24 09:59:01am, dynamic, 1_6_vs_2_6, false, RIGHT, 2839, 0, 0, 0, 0
4,2019-01-24 09:59:04am, dynamic, 1_6_vs_2_6, true, LEFT, 2440, 1, 0, 1, 0
5,2019-01-24 09:59:06am, dynamic, 1_6_vs_2_6, true, LEFT, 2472, 1, 0, 1, 0
6,2019-01-24 09:59:08am, dynamic, 1_6_vs_2_6, true, LEFT, 2289, 1, 1, 1, 1
7,2019-01-24 09:59:11am, dynamic, 1_6_vs_2_6, true, LEFT, 2177, 0, 0, 0, 0
8,2019-01-24 09:59:13am, dynamic, 1_6_vs_2_6, false, RIGHT, 2478, 1, 0, 0, 1
9,2019-01-24 09:59:15am, dynamic, 1_6_vs_2_6, false, RIGHT, 2200, 0, 1, 1, 0
10,2019-01-24 09:59:18am, dynamic, 1_6_vs_2_6, false, RIGHT, 2456, 0, 1, 1, 0
11,2019-01-24 09:59:20am, dynamic, 1_6_vs_2_6, true, LEFT, 2169, 1, 0, 1, 0
12,2019-01-24 09:59:22am, dynamic, 1_6_vs_2_6, true, LEFT, 2151, 0, 1, 0, 1
13,2019-01-24 09:59:24am, dynamic, 1_6_vs_2_6, true, LEFT, 2233, 0, 0, 0, 0
14,2019-01-24 09:59:26am, dynamic, 1_6_vs_2_6, true, LEFT, 2177, 0, 0, 0, 0
15,2019-01-24 09:59:29am, dynamic, 1_6_vs_2_6, false, RIGHT, 2206, 0, 0, 0, 0
16,2019-01-24 09:59:31am, dynamic, 1_6_vs_2_6, true, LEFT, 2081, 0, 0, 0, 0
17,2019-01-24 09:59:33am, dynamic, 1_6_vs_2_6, true, LEFT, 2151, 0, 0, 0, 0
18,2019-01-24 09:59:35am, dynamic, 1_6_vs_2_6, true, LEFT, 2089, 1, 0, 1, 0
19,2019-01-24 09:59:37am, dynamic, 1_6_vs_2_6, true, LEFT, 2087, 0, 0, 0, 0
20,2019-01-24 09:59:39am, dynamic, 1_6_vs_2_6, false, RIGHT, 2136, 0, 1, 1, 0
21,2019-01-24 09:59:42am, dynamic, 1_6_vs_2_6, false, RIGHT, 2576, 0, 0, 0, 0
22,2019-01-24 09:59:44am, dynamic, 1_6_vs_2_6, false, RIGHT, 2288, 0, 0, 0, 0
23,2019-01-24 09:59:46am, dynamic, 1_6_vs_2_6, true, LEFT, 2121, 1, 0, 1, 0
24,2019-01-24 09:59:49am, dynamic, 1_6_vs_2_6, true, LEFT, 2399, 0, 0, 0, 0
25,2019-01-24 09:59:51am, dynamic, 1_6_vs_2_6, true, LEFT, 2128, 1, 0, 1, 0
26,2019-01-24 09:59:53am, dynamic, 1_6_vs_2_6, true, LEFT, 2152, 0, 0, 0, 0
27,2019-01-24 09:59:55am, dynamic, 1_6_vs_2_6, true, LEFT, 2129, 0, 1, 0, 1
28,2019-01-24 09:59:57am, dynamic, 1_6_vs_2_6, true, LEFT, 2216, 0, 0, 0, 0
29,2019-01-24 09:59:59am, dynamic, 1_6_vs_2_6, true, LEFT, 2151, 1, 0, 1, 0
30,2019-01-24 10:00:02am, dynamic, 1_6_vs_2_6, true, LEFT, 2152, 0, 1, 0, 1
31,2019-01-24 10:00:04am, dynamic, 1_6_vs_2_6, true, LEFT, 2152, 1, 0, 1, 0
32,2019-01-24 10:00:06am, dynamic, 1_6_vs_2_6, true, LEFT, 2137, 0, 0, 0, 0
33,2019-01-24 10:00:08am, dynamic, 1_6_vs_2_6, true, LEFT, 2144, 0, 0, 0, 0
34,2019-01-24 10:00:10am, dynamic, 1_6_vs_2_6, true, LEFT, 2287, 0, 0, 0, 0
35,2019-01-24 10:00:12am, dynamic, 1_6_vs_2_6, true, LEFT, 2104, 0, 0, 0, 0
36,2019-01-24 10:00:15am, dynamic, 1_6_vs_2_6, false, RIGHT, 2344, 0, 0, 0, 0
37,2019-01-24 10:00:17am, dynamic, 1_6_vs_2_6, false, RIGHT, 2064, 0, 0, 0, 0
38,2019-01-24 10:00:19am, dynamic, 1_6_vs_2_6, true, LEFT, 2433, 1, 0, 1, 0
39,2019-01-24 10:00:21am, dynamic, 1_6_vs_2_6, true, LEFT, 2104, 0, 0, 0, 0
40,2019-01-24 10:00:23am, dynamic, 1_6_vs_2_6, true, LEFT, 2152, 0, 0, 0, 0
41,2019-01-24 10:00:26am, dynamic, 1_6_vs_2_6, true, LEFT, 2137, 0, 0, 0, 0
42,2019-01-24 10:00:28am, dynamic, 1_6_vs_2_6, true, LEFT, 2367, 1, 0, 1, 0
43,2019-01-24 10:00:30am, dynamic, 1_6_vs_2_6, true, LEFT, 2240, 0, 0, 0, 0
44,2019-01-24 10:00:33am, dynamic, 1_6_vs_2_6, false, RIGHT, 2504, 0, 0, 0, 0
45,2019-01-24 10:00:35am, dynamic, 1_6_vs_2_6, true, LEFT, 2424, 1, 0, 1, 0
46,2019-01-24 10:00:37am, dynamic, 1_6_vs_2_6, true, LEFT, 2129, 0, 0, 0, 0
47,2019-01-24 10:00:39am, dynamic, 1_6_vs_2_6, true, LEFT, 2143, 0, 0, 0, 0
48,2019-01-24 10:00:41am, dynamic, 1_6_vs_2_6, true, LEFT, 2047, 1, 0, 1, 0
49,2019-01-24 10:00:44am, dynamic, 1_6_vs_2_6, true, LEFT, 2193, 0, 1, 0, 1
50,2019-01-24 10:00:46am, dynamic, 1_6_vs_2_6, true, LEFT, 2280, 1, 0, 1, 0
51,2019-01-24 10:00:48am, dynamic, 1_6_vs_2_6, true, LEFT, 2311, 0, 0, 0, 0
52,2019-01-24 10:00:51am, dynamic, 1_6_vs_2_6, false, RIGHT, 2577, 1, 0, 0, 1
53,2019-01-24 10:00:53am, dynamic, 1_6_vs_2_6, false, RIGHT, 2119, 0, 1, 1, 0
54,2019-01-24 10:00:55am, dynamic, 1_6_vs_2_6, true, LEFT, 2401, 1, 0, 1, 0
55,2019-01-24 10:00:57am, dynamic, 1_6_vs_2_6, true, LEFT, 2096, 0, 0, 0, 0
56,2019-01-24 10:00:59am, dynamic, 1_6_vs_2_6, false, RIGHT, 2048, 0, 0, 0, 0
57,2019-01-24 10:01:02am, dynamic, 1_6_vs_2_6, true, LEFT, 2184, 0, 0, 0, 0
58,2019-01-24 10:01:04am, dynamic, 1_6_vs_2_6, true, LEFT, 2048, 0, 0, 0, 0
59,2019-01-24 10:01:06am, dynamic, 1_6_vs_2_6, true, LEFT, 2055, 0, 0, 0, 0
60,2019-01-24 10:01:08am, dynamic, 1_6_vs_2_6, false, RIGHT, 2017, 0, 1, 1, 0
61,2019-01-24 10:01:10am, dynamic, 1_6_vs_2_6, true, LEFT, 1919, 0, 0, 0, 0
62,2019-01-24 10:01:12am, dynamic, 1_6_vs_2_6, true, LEFT, 2056, 0, 0, 0, 0
63,2019-01-24 10:01:14am, dynamic, 1_6_vs_2_6, false, RIGHT, 2120, 0, 0, 0, 0
64,2019-01-24 10:01:16am, dynamic, 1_6_vs_2_6, true, LEFT, 2416, 0, 0, 0, 0
65,2019-01-24 10:01:18am, dynamic, 1_6_vs_2_6, true, LEFT, 2073, 0, 0, 0, 0
66,2019-01-24 10:01:20am, dynamic, 1_6_vs_2_6, true, LEFT, 2088, 1, 0, 1, 0
67,2019-01-24 10:01:23am, dynamic, 1_6_vs_2_6, true, LEFT, 2153, 0, 1, 0, 1
68,2019-01-24 10:01:25am, dynamic, 1_6_vs_2_6, true, LEFT, 2375, 0, 0, 0, 0
69,2019-01-24 10:01:27am, dynamic, 1_6_vs_2_6, true, LEFT, 2056, 0, 0, 0, 0
70,2019-01-24 10:01:29am, dynamic, 1_6_vs_2_6, true, LEFT, 2096, 1, 0, 1, 0
71,2019-01-24 10:01:31am, dynamic, 1_6_vs_2_6, true, LEFT, 2127, 0, 0, 0, 0
72,2019-01-24 10:01:33am, dynamic, 1_6_vs_2_6, true, LEFT, 2257, 1, 1, 1, 1
73,2019-01-24 10:01:36am, dynamic, 1_6_vs_2_6, true, LEFT, 2856, 0, 0, 0, 0
74,2019-01-24 10:01:38am, dynamic, 1_6_vs_2_6, true, LEFT, 2087, 0, 0, 0, 0
75,2019-01-24 10:01:40am, dynamic, 1_6_vs_2_6, false, RIGHT, 2017, 0, 0, 0, 0
76,2019-01-24 10:01:43am, dynamic, 1_6_vs_2_6, false, RIGHT, 2136, 0, 1, 1, 0
77,2019-01-24 10:01:45am, dynamic, 1_6_vs_2_6, true, LEFT, 2167, 1, 0, 1, 0
78,2019-01-24 10:01:47am, dynamic, 1_6_vs_2_6, true, LEFT, 2144, 1, 1, 1, 1
79,2019-01-24 10:01:49am, dynamic, 1_6_vs_2_6, true, LEFT, 2169, 0, 1, 0, 1
80,2019-01-24 10:01:51am, dynamic, 1_6_vs_2_6, true, LEFT, 2209, 0, 0, 0, 0
81,2019-01-24 10:01:53am, dynamic, 1_6_vs_2_6, true, LEFT, 2055, 1, 0, 1, 0
82,2019-01-24 10:01:55am, dynamic, 1_6_vs_2_6, true, LEFT, 2095, 0, 0, 0, 0
83,2019-01-24 10:01:58am, dynamic, 1_6_vs_2_6, true, LEFT, 2313, 0, 0, 0, 0
84,2019-01-24 10:02:01am, dynamic, 1_6_vs_2_6, false, RIGHT, 2799, 1, 0, 0, 1
85,2019-01-24 10:02:03am, dynamic, 1_6_vs_2_6, false, RIGHT, 2178, 0, 1, 1, 0
86,2019-01-24 10:02:05am, dynamic, 1_6_vs_2_6, true, LEFT, 2510, 0, 0, 0, 0
87,2019-01-24 10:02:08am, dynamic, 1_6_vs_2_6, true, LEFT, 2480, 0, 1, 0, 1
88,2019-01-24 10:02:10am, dynamic, 1_6_vs_2_6, false, RIGHT, 2137, 0, 0, 0, 0
89,2019-01-24 10:02:12am, dynamic, 1_6_vs_2_6, true, LEFT, 2088, 1, 0, 1, 0
90,2019-01-24 10:02:14am, dynamic, 1_6_vs_2_6, true, LEFT, 2159, 0, 0, 0, 0
91,2019-01-24 10:02:16am, dynamic, 1_6_vs_2_6, true, LEFT, 2152, 1, 1, 1, 1
92,2019-01-24 10:02:18am, dynamic, 1_6_vs_2_6, true, LEFT, 2129, 0, 1, 0, 1
93,2019-01-24 10:02:20am, dynamic, 1_6_vs_2_6, true, LEFT, 2127, 1, 0, 1, 0
94,2019-01-24 10:02:23am, dynamic, 1_6_vs_2_6, true, LEFT, 2089, 0, 0, 0, 0
95,2019-01-24 10:02:25am, dynamic, 1_6_vs_2_6, true, LEFT, 2071, 0, 0, 0, 0
96,2019-01-24 10:02:27am, dynamic, 1_6_vs_2_6, true, LEFT, 2121, 1, 0, 1, 0
97,2019-01-24 10:02:29am, dynamic, 1_6_vs_2_6, true, LEFT, 2127, 1, 0, 1, 0
98,2019-01-24 10:02:31am, dynamic, 1_6_vs_2_6, true, LEFT, 2153, 0, 1, 0, 1
99,2019-01-24 10:02:33am, dynamic, 1_6_vs_2_6, true, LEFT, 2032, 0, 0, 0, 0
