trial_number, time, schedule_type, schedule_name, is_biased_choice, side_choice, RT, observed_reward, unobserved_reward, biased_reward, unbiased_reward
0,2019-01-24 09:58:52am, dynamic, 1_6_vs_2_6, true, LEFT, 3888, 1, 0, 1, 0
1,2019-01-24 09:58:55am, dynamic, 1_6_vs_2_6, false, RIGHT, 3753, 0, 1, 1, 0
2,2019-01-24 09:58:59am, dynamic, 1_6_vs_2_6, true, LEFT, 3369, 0, 0, 0, 0
3,2019-01-24 09:59:02am, dynamic, 1_6_vs_2_6, true, LEFT, 3164, 0, 0, 0, 0
4,2019-01-24 09:59:05am, dynamic, 1_6_vs_2_6, true, LEFT, 2909, 1, 0, 1, 0
5,2019-01-24 09:59:08am, dynamic, 1_6_vs_2_6, false, RIGHT, 3057, 0, 0, 0, 0
6,2019-01-24 09:59:10am, dynamic, 1_6_vs_2_6, false, RIGHT, 2649, 0, 0, 0, 0
7,2019-01-24 09:59:13am, dynamic, 1_6_vs_2_6, false, RIGHT, 2464, 1, 0, 0, 1
8,2019-01-24 09:59:16am, dynamic, 1_6_vs_2_6, false, RIGHT, 2882, 0, 0, 0, 0
9,2019-01-24 09:59:19am, dynamic, 1_6_vs_2_6, true, LEFT, 2922, 0, 0, 0, 0
10,2019-01-24 09:59:22am, dynamic, 1_6_vs_2_6, true, LEFT, 3524, 1, 0, 1, 0
11,2019-01-24 09:59:25am, dynamic, 1_6_vs_2_6, true, LEFT, 2526, 0, 0, 0, 0
12,2019-01-24 09:59:27am, dynamic, 1_6_vs_2_6, true, LEFT, 2744, 0, 0, 0, 0
13,2019-01-24 09:59:31am, dynamic, 1_6_vs_2_6, true, LEFT, 3101, 0, 0, 0, 0
14,2019-01-24 09:59:33am, dynamic, 1_6_vs_2_6, true, LEFT, 2261, 1, 1, 1, 1
15,2019-01-24 09:59:35am, dynamic, 1_6_vs_2_6, true, LEFT, 2562, 1, 0, 1, 0
16,2019-01-24 09:59:38am, dynamic, 1_6_vs_2_6, true, LEFT, 2717, 0, 0, 0, 0
17,2019-01-24 09:59:41am, dynamic, 1_6_vs_2_6, false, RIGHT, 2684, 0, 1, 1, 0
18,2019-01-24 09:59:44am, dynamic, 1_6_vs_2_6, false, RIGHT, 2766, 0, 0, 0, 0
19,2019-01-24 09:59:46am, dynamic, 1_6_vs_2_6, false, RIGHT, 2417, 0, 0, 0, 0
20,2019-01-24 09:59:49am, dynamic, 1_6_vs_2_6, false, RIGHT, 2763, 0, 0, 0, 0
21,2019-01-24 09:59:51am, dynamic, 1_6_vs_2_6, false, RIGHT, 2354, 0, 0, 0, 0
22,2019-01-24 09:59:53am, dynamic, 1_6_vs_2_6, false, RIGHT, 2386, 0, 0, 0, 0
23,2019-01-24 09:59:56am, dynamic, 1_6_vs_2_6, false, RIGHT, 2262, 0, 1, 1, 0
24,2019-01-24 09:59:58am, dynamic, 1_6_vs_2_6, true, LEFT, 2531, 0, 0, 0, 0
25,2019-01-24 10:00:01am, dynamic, 1_6_vs_2_6, true, LEFT, 2556, 1, 0, 1, 0
26,2019-01-24 10:00:03am, dynamic, 1_6_vs_2_6, true, LEFT, 2285, 0, 0, 0, 0
27,2019-01-24 10:00:05am, dynamic, 1_6_vs_2_6, true, LEFT, 2227, 0, 1, 0, 1
28,2019-01-24 10:00:08am, dynamic, 1_6_vs_2_6, false, RIGHT, 2256, 0, 1, 1, 0
29,2019-01-24 10:00:10am, dynamic, 1_6_vs_2_6, false, RIGHT, 2559, 0, 1, 1, 0
30,2019-01-24 10:00:13am, dynamic, 1_6_vs_2_6, false, RIGHT, 2408, 0, 1, 1, 0
31,2019-01-24 10:00:15am, dynamic, 1_6_vs_2_6, true, LEFT, 2636, 0, 0, 0, 0
32,2019-01-24 10:00:18am, dynamic, 1_6_vs_2_6, true, LEFT, 2308, 1, 0, 1, 0
33,2019-01-24 10:00:20am, dynamic, 1_6_vs_2_6, true, LEFT, 2219, 0, 0, 0, 0
34,2019-01-24 10:00:22am, dynamic, 1_6_vs_2_6, true, LEFT, 2755, 1, 0, 1, 0
35,2019-01-24 10:00:25am, dynamic, 1_6_vs_2_6, true, LEFT, 2340, 0, 0, 0, 0
36,2019-01-24 10:00:27am, dynamic, 1_6_vs_2_6, true, LEFT, 2266, 0, 1, 0, 1
37,2019-01-24 10:00:29am, dynamic, 1_6_vs_2_6, true, LEFT, 2291, 0, 0, 0, 0
38,2019-01-24 10:00:32am, dynamic, 1_6_vs_2_6, true, LEFT, 2216, 1, 0, 1, 0
39,2019-01-24 10:00:34am, dynamic, 1_6_vs_2_6, true, LEFT, 2311, 0, 0, 0, 0
40,2019-01-24 10:00:36am, dynamic, 1_6_vs_2_6, true, LEFT, 2329, 0, 0, 0, 0
41,2019-01-24 10:00:39am, dynamic, 1_6_vs_2_6, true, LEFT, 2318, 1, 0, 1, 0
42,2019-01-24 10:00:44am, dynamic, 1_6_vs_2_6, true, LEFT, 5552, 1, 0, 1, 0
43,2019-01-24 10:00:46am, dynamic, 1_6_vs_2_6, true, LEFT, 2229, 1, 0, 1, 0
44,2019-01-24 10:00:49am, dynamic, 1_6_vs_2_6, true, LEFT, 2639, 0, 1, 0, 1
45,2019-01-24 10:00:51am, dynamic, 1_6_vs_2_6, true, LEFT, 2166, 0, 0, 0, 0
46,2019-01-24 10:00:53am, dynamic, 1_6_vs_2_6, true, LEFT, 2189, 0, 0, 0, 0
47,2019-01-24 10:00:56am, dynamic, 1_6_vs_2_6, true, LEFT, 2431, 0, 0, 0, 0
48,2019-01-24 10:00:58am, dynamic, 1_6_vs_2_6, true, LEFT, 2266, 0, 0, 0, 0
49,2019-01-24 10:01:00am, dynamic, 1_6_vs_2_6, false, RIGHT, 2312, 0, 0, 0, 0
50,2019-01-24 10:01:03am, dynamic, 1_6_vs_2_6, true, LEFT, 2288, 0, 0, 0, 0
51,2019-01-24 10:01:05am, dynamic, 1_6_vs_2_6, true, LEFT, 2167, 0, 0, 0, 0
52,2019-01-24 10:01:08am, dynamic, 1_6_vs_2_6, true, LEFT, 2719, 0, 0, 0, 0
53,2019-01-24 10:01:10am, dynamic, 1_6_vs_2_6, true, LEFT, 2487, 0, 0, 0, 0
54,2019-01-24 10:01:12am, dynamic, 1_6_vs_2_6, true, LEFT, 2253, 0, 1, 0, 1
55,2019-01-24 10:01:14am, dynamic, 1_6_vs_2_6, true, LEFT, 2125, 0, 1, 0, 1
56,2019-01-24 10:01:17am, dynamic, 1_6_vs_2_6, false, RIGHT, 2631, 1, 0, 0, 1
57,2019-01-24 10:01:19am, dynamic, 1_6_vs_2_6, false, RIGHT, 2291, 0, 1, 1, 0
58,2019-01-24 10:01:21am, dynamic, 1_6_vs_2_6, true, LEFT, 2172, 0, 0, 0, 0
59,2019-01-24 10:01:24am, dynamic, 1_6_vs_2_6, true, LEFT, 2104, 1, 0, 1, 0
60,2019-01-24 10:01:26am, dynamic, 1_6_vs_2_6, true, LEFT, 2778, 0, 0, 0, 0
61,2019-01-24 10:01:29am, dynamic, 1_6_vs_2_6, true, LEFT, 2224, 1, 1, 1, 1
62,2019-01-24 10:01:31am, dynamic, 1_6_vs_2_6, false, RIGHT, 2256, 0, 0, 0, 0
63,2019-01-24 10:01:33am, dynamic, 1_6_vs_2_6, false, RIGHT, 2507, 0, 0, 0, 0
64,2019-01-24 10:01:36am, dynamic, 1_6_vs_2_6, true, LEFT, 2710, 0, 0, 0, 0
65,2019-01-24 10:01:38am, dynamic, 1_6_vs_2_6, true, LEFT, 2234, 1, 0, 1, 0
66,2019-01-24 10:01:41am, dynamic, 1_6_vs_2_6, true, LEFT, 2392, 1, 0, 1, 0
67,2019-01-24 10:01:43am, dynamic, 1_6_vs_2_6, true, LEFT, 2260, 0, 0, 0, 0
68,2019-01-24 10:01:45am, dynamic, 1_6_vs_2_6, true, LEFT, 2233, 0, 0, 0, 0
69,2019-01-24 10:01:48am, dynamic, 1_6_vs_2_6, true, LEFT, 3082, 0, 1, 0, 1
70,2019-01-24 10:01:51am, dynamic, 1_6_vs_2_6, true, LEFT, 2299, 0, 0, 0, 0
71,2019-01-24 10:01:53am, dynamic, 1_6_vs_2_6, true, LEFT, 2365, 1, 0, 1, 0
72,2019-01-24 10:01:55am, dynamic, 1_6_vs_2_6, true, LEFT, 2484, 1, 0, 1, 0
73,2019-01-24 10:01:59am, dynamic, 1_6_vs_2_6, true, LEFT, 3284, 0, 0, 0, 0
74,2019-01-24 10:02:01am, dynamic, 1_6_vs_2_6, false, RIGHT, 2418, 0, 0, 0, 0
75,2019-01-24 10:02:03am, dynamic, 1_6_vs_2_6, false, RIGHT, 2266, 0, 1, 1, 0
76,2019-01-24 10:02:06am, dynamic, 1_6_vs_2_6, false, RIGHT, 2210, 1, 0, 0, 1
77,2019-01-24 10:02:08am, dynamic, 1_6_vs_2_6, true, LEFT, 2289, 0, 0, 0, 0
78,2019-01-24 10:02:10am, dynamic, 1_6_vs_2_6, true, LEFT, 2202, 0, 1, 0, 1
79,2019-01-24 10:02:12am, dynamic, 1_6_vs_2_6, true, LEFT, 2156, 0, 0, 0, 0
80,2019-01-24 10:02:16am, dynamic, 1_6_vs_2_6, true, LEFT, 3782, 1, 0, 1, 0
81,2019-01-24 10:02:18am, dynamic, 1_6_vs_2_6, true, LEFT, 2369, 0, 0, 0, 0
82,2019-01-24 10:02:21am, dynamic, 1_6_vs_2_6, true, LEFT, 2235, 1, 0, 1, 0
83,2019-01-24 10:02:23am, dynamic, 1_6_vs_2_6, true, LEFT, 2294, 1, 0, 1, 0
84,2019-01-24 10:02:25am, dynamic, 1_6_vs_2_6, false, RIGHT, 2308, 0, 0, 0, 0
85,2019-01-24 10:02:28am, dynamic, 1_6_vs_2_6, false, RIGHT, 3089, 1, 0, 0, 1
86,2019-01-24 10:02:31am, dynamic, 1_6_vs_2_6, true, LEFT, 2300, 1, 0, 1, 0
87,2019-01-24 10:02:33am, dynamic, 1_6_vs_2_6, false, RIGHT, 2328, 0, 1, 1, 0
88,2019-01-24 10:02:36am, dynamic, 1_6_vs_2_6, false, RIGHT, 2536, 0, 0, 0, 0
89,2019-01-24 10:02:38am, dynamic, 1_6_vs_2_6, false, RIGHT, 2347, 1, 0, 0, 1
90,2019-01-24 10:02:40am, dynamic, 1_6_vs_2_6, true, LEFT, 2244, 0, 1, 0, 1
91,2019-01-24 10:02:42am, dynamic, 1_6_vs_2_6, true, LEFT, 2178, 0, 1, 0, 1
92,2019-01-24 10:02:45am, dynamic, 1_6_vs_2_6, true, LEFT, 2345, 0, 0, 0, 0
93,2019-01-24 10:02:47am, dynamic, 1_6_vs_2_6, true, LEFT, 2456, 0, 0, 0, 0
94,2019-01-24 10:02:49am, dynamic, 1_6_vs_2_6, true, LEFT, 2383, 1, 0, 1, 0
95,2019-01-24 10:02:52am, dynamic, 1_6_vs_2_6, false, RIGHT, 2228, 0, 1, 1, 0
96,2019-01-24 10:02:54am, dynamic, 1_6_vs_2_6, true, LEFT, 2415, 0, 0, 0, 0
97,2019-01-24 10:02:56am, dynamic, 1_6_vs_2_6, true, LEFT, 2294, 0, 0, 0, 0
98,2019-01-24 10:02:58am, dynamic, 1_6_vs_2_6, true, LEFT, 2153, 0, 0, 0, 0
99,2019-01-24 10:03:01am, dynamic, 1_6_vs_2_6, true, LEFT, 2628, 0, 0, 0, 0
