trial_number, time, schedule_type, schedule_name, is_biased_choice, side_choice, RT, observed_reward, unobserved_reward, biased_reward, unbiased_reward
0,2019-01-23 12:11:58pm, dynamic, 1_6_vs_2_6, true, LEFT, 7132, 1, 1, 1, 1
1,2019-01-23 12:12:01pm, dynamic, 1_6_vs_2_6, true, LEFT, 3328, 1, 0, 1, 0
2,2019-01-23 12:12:04pm, dynamic, 1_6_vs_2_6, true, LEFT, 2852, 0, 0, 0, 0
3,2019-01-23 12:12:06pm, dynamic, 1_6_vs_2_6, true, LEFT, 2368, 0, 0, 0, 0
4,2019-01-23 12:12:08pm, dynamic, 1_6_vs_2_6, true, LEFT, 2259, 0, 0, 0, 0
5,2019-01-23 12:12:10pm, dynamic, 1_6_vs_2_6, true, LEFT, 2199, 0, 0, 0, 0
6,2019-01-23 12:12:13pm, dynamic, 1_6_vs_2_6, false, RIGHT, 2539, 0, 0, 0, 0
7,2019-01-23 12:12:15pm, dynamic, 1_6_vs_2_6, true, LEFT, 2310, 0, 0, 0, 0
8,2019-01-23 12:12:17pm, dynamic, 1_6_vs_2_6, false, RIGHT, 2157, 0, 1, 1, 0
9,2019-01-23 12:12:20pm, dynamic, 1_6_vs_2_6, true, LEFT, 2319, 0, 0, 0, 0
10,2019-01-23 12:12:22pm, dynamic, 1_6_vs_2_6, true, LEFT, 2178, 0, 0, 0, 0
11,2019-01-23 12:12:24pm, dynamic, 1_6_vs_2_6, false, RIGHT, 2192, 0, 1, 1, 0
12,2019-01-23 12:12:26pm, dynamic, 1_6_vs_2_6, false, RIGHT, 2195, 0, 0, 0, 0
13,2019-01-23 12:12:28pm, dynamic, 1_6_vs_2_6, false, RIGHT, 2063, 0, 1, 1, 0
14,2019-01-23 12:12:31pm, dynamic, 1_6_vs_2_6, true, LEFT, 2215, 0, 1, 0, 1
15,2019-01-23 12:12:33pm, dynamic, 1_6_vs_2_6, false, RIGHT, 2159, 0, 0, 0, 0
16,2019-01-23 12:12:35pm, dynamic, 1_6_vs_2_6, true, LEFT, 2176, 0, 1, 0, 1
17,2019-01-23 12:12:37pm, dynamic, 1_6_vs_2_6, true, LEFT, 2229, 0, 0, 0, 0
18,2019-01-23 12:12:39pm, dynamic, 1_6_vs_2_6, false, RIGHT, 2191, 0, 1, 1, 0
19,2019-01-23 12:12:41pm, dynamic, 1_6_vs_2_6, false, RIGHT, 2113, 0, 0, 0, 0
20,2019-01-23 12:12:44pm, dynamic, 1_6_vs_2_6, false, RIGHT, 2074, 1, 1, 1, 1
21,2019-01-23 12:12:46pm, dynamic, 1_6_vs_2_6, false, RIGHT, 2128, 0, 0, 0, 0
22,2019-01-23 12:12:48pm, dynamic, 1_6_vs_2_6, false, RIGHT, 2142, 0, 1, 1, 0
23,2019-01-23 12:12:50pm, dynamic, 1_6_vs_2_6, true, LEFT, 2116, 0, 0, 0, 0
24,2019-01-23 12:12:52pm, dynamic, 1_6_vs_2_6, true, LEFT, 2109, 0, 0, 0, 0
25,2019-01-23 12:12:55pm, dynamic, 1_6_vs_2_6, false, RIGHT, 2822, 0, 1, 1, 0
26,2019-01-23 12:12:57pm, dynamic, 1_6_vs_2_6, true, LEFT, 2206, 0, 1, 0, 1
27,2019-01-23 12:12:59pm, dynamic, 1_6_vs_2_6, false, RIGHT, 2174, 1, 0, 0, 1
28,2019-01-23 12:13:01pm, dynamic, 1_6_vs_2_6, false, RIGHT, 2081, 0, 0, 0, 0
29,2019-01-23 12:13:04pm, dynamic, 1_6_vs_2_6, false, RIGHT, 2178, 0, 0, 0, 0
30,2019-01-23 12:13:06pm, dynamic, 1_6_vs_2_6, false, RIGHT, 2102, 0, 1, 1, 0
31,2019-01-23 12:13:08pm, dynamic, 1_6_vs_2_6, false, RIGHT, 2153, 0, 0, 0, 0
32,2019-01-23 12:13:10pm, dynamic, 1_6_vs_2_6, true, LEFT, 2170, 0, 0, 0, 0
33,2019-01-23 12:13:12pm, dynamic, 1_6_vs_2_6, false, RIGHT, 2146, 1, 0, 0, 1
34,2019-01-23 12:13:14pm, dynamic, 1_6_vs_2_6, false, RIGHT, 2223, 0, 0, 0, 0
35,2019-01-23 12:13:17pm, dynamic, 1_6_vs_2_6, true, LEFT, 2226, 0, 0, 0, 0
36,2019-01-23 12:13:22pm, dynamic, 1_6_vs_2_6, false, RIGHT, 5267, 0, 0, 0, 0
37,2019-01-23 12:13:24pm, dynamic, 1_6_vs_2_6, true, LEFT, 2182, 0, 0, 0, 0
38,2019-01-23 12:13:39pm, dynamic, 1_6_vs_2_6, false, RIGHT, 14697, 0, 0, 0, 0
39,2019-01-23 12:13:41pm, dynamic, 1_6_vs_2_6, true, LEFT, 2595, 1, 0, 1, 0
40,2019-01-23 12:13:44pm, dynamic, 1_6_vs_2_6, false, RIGHT, 2589, 0, 1, 1, 0
41,2019-01-23 12:13:46pm, dynamic, 1_6_vs_2_6, true, LEFT, 2132, 1, 0, 1, 0
42,2019-01-23 12:13:48pm, dynamic, 1_6_vs_2_6, true, LEFT, 2232, 1, 0, 1, 0
43,2019-01-23 12:13:50pm, dynamic, 1_6_vs_2_6, false, RIGHT, 2000, 0, 0, 0, 0
44,2019-01-23 12:13:52pm, dynamic, 1_6_vs_2_6, false, RIGHT, 2139, 0, 0, 0, 0
45,2019-01-23 12:13:54pm, dynamic, 1_6_vs_2_6, false, RIGHT, 2102, 0, 0, 0, 0
46,2019-01-23 12:13:57pm, dynamic, 1_6_vs_2_6, true, LEFT, 2176, 1, 0, 1, 0
47,2019-01-23 12:13:59pm, dynamic, 1_6_vs_2_6, true, LEFT, 2144, 0, 0, 0, 0
48,2019-01-23 12:14:01pm, dynamic, 1_6_vs_2_6, false, RIGHT, 2169, 0, 0, 0, 0
49,2019-01-23 12:14:03pm, dynamic, 1_6_vs_2_6, false, RIGHT, 2077, 0, 0, 0, 0
50,2019-01-23 12:14:05pm, dynamic, 1_6_vs_2_6, true, LEFT, 2203, 1, 0, 1, 0
51,2019-01-23 12:14:08pm, dynamic, 1_6_vs_2_6, true, LEFT, 2775, 1, 0, 1, 0
52,2019-01-23 12:14:10pm, dynamic, 1_6_vs_2_6, false, RIGHT, 2153, 1, 0, 0, 1
53,2019-01-23 12:14:12pm, dynamic, 1_6_vs_2_6, false, RIGHT, 2301, 0, 0, 0, 0
54,2019-01-23 12:14:15pm, dynamic, 1_6_vs_2_6, false, RIGHT, 2147, 0, 1, 1, 0
55,2019-01-23 12:14:17pm, dynamic, 1_6_vs_2_6, true, LEFT, 2106, 0, 0, 0, 0
56,2019-01-23 12:14:19pm, dynamic, 1_6_vs_2_6, true, LEFT, 2120, 0, 0, 0, 0
57,2019-01-23 12:14:21pm, dynamic, 1_6_vs_2_6, true, LEFT, 2142, 0, 0, 0, 0
58,2019-01-23 12:14:23pm, dynamic, 1_6_vs_2_6, false, RIGHT, 2075, 1, 1, 1, 1
59,2019-01-23 12:14:25pm, dynamic, 1_6_vs_2_6, false, RIGHT, 2235, 0, 1, 1, 0
60,2019-01-23 12:14:27pm, dynamic, 1_6_vs_2_6, false, RIGHT, 2152, 0, 1, 1, 0
61,2019-01-23 12:14:30pm, dynamic, 1_6_vs_2_6, false, RIGHT, 2290, 1, 1, 1, 1
62,2019-01-23 12:14:32pm, dynamic, 1_6_vs_2_6, false, RIGHT, 2187, 1, 0, 0, 1
63,2019-01-23 12:14:34pm, dynamic, 1_6_vs_2_6, false, RIGHT, 2263, 0, 0, 0, 0
64,2019-01-23 12:14:36pm, dynamic, 1_6_vs_2_6, true, LEFT, 2124, 1, 0, 1, 0
65,2019-01-23 12:14:38pm, dynamic, 1_6_vs_2_6, true, LEFT, 2108, 1, 0, 1, 0
66,2019-01-23 12:14:41pm, dynamic, 1_6_vs_2_6, false, RIGHT, 3018, 0, 0, 0, 0
67,2019-01-23 12:14:44pm, dynamic, 1_6_vs_2_6, true, LEFT, 2841, 1, 1, 1, 1
68,2019-01-23 12:14:47pm, dynamic, 1_6_vs_2_6, false, RIGHT, 2241, 0, 1, 1, 0
69,2019-01-23 12:14:49pm, dynamic, 1_6_vs_2_6, true, LEFT, 2274, 1, 0, 1, 0
70,2019-01-23 12:14:51pm, dynamic, 1_6_vs_2_6, true, LEFT, 2655, 0, 0, 0, 0
71,2019-01-23 12:14:54pm, dynamic, 1_6_vs_2_6, false, RIGHT, 2306, 0, 0, 0, 0
72,2019-01-23 12:14:56pm, dynamic, 1_6_vs_2_6, true, LEFT, 2146, 0, 0, 0, 0
73,2019-01-23 12:14:58pm, dynamic, 1_6_vs_2_6, true, LEFT, 2320, 0, 0, 0, 0
74,2019-01-23 12:15:01pm, dynamic, 1_6_vs_2_6, false, RIGHT, 2477, 0, 0, 0, 0
75,2019-01-23 12:15:07pm, dynamic, 1_6_vs_2_6, true, LEFT, 6319, 0, 0, 0, 0
76,2019-01-23 12:15:09pm, dynamic, 1_6_vs_2_6, true, LEFT, 2098, 0, 0, 0, 0
77,2019-01-23 12:15:12pm, dynamic, 1_6_vs_2_6, true, LEFT, 2844, 0, 0, 0, 0
78,2019-01-23 12:15:14pm, dynamic, 1_6_vs_2_6, false, RIGHT, 2229, 0, 0, 0, 0
79,2019-01-23 12:15:16pm, dynamic, 1_6_vs_2_6, false, RIGHT, 2099, 1, 0, 0, 1
80,2019-01-23 12:15:19pm, dynamic, 1_6_vs_2_6, false, RIGHT, 2276, 1, 0, 0, 1
81,2019-01-23 12:15:21pm, dynamic, 1_6_vs_2_6, true, LEFT, 2185, 0, 0, 0, 0
82,2019-01-23 12:15:23pm, dynamic, 1_6_vs_2_6, true, LEFT, 2408, 1, 1, 1, 1
83,2019-01-23 12:15:26pm, dynamic, 1_6_vs_2_6, true, LEFT, 2366, 1, 0, 1, 0
84,2019-01-23 12:15:28pm, dynamic, 1_6_vs_2_6, false, RIGHT, 2593, 0, 0, 0, 0
85,2019-01-23 12:15:30pm, dynamic, 1_6_vs_2_6, true, LEFT, 2253, 0, 0, 0, 0
86,2019-01-23 12:15:32pm, dynamic, 1_6_vs_2_6, true, LEFT, 2121, 0, 0, 0, 0
87,2019-01-23 12:15:35pm, dynamic, 1_6_vs_2_6, true, LEFT, 2768, 0, 0, 0, 0
88,2019-01-23 12:15:38pm, dynamic, 1_6_vs_2_6, false, RIGHT, 2822, 0, 0, 0, 0
89,2019-01-23 12:15:40pm, dynamic, 1_6_vs_2_6, false, RIGHT, 2153, 0, 0, 0, 0
90,2019-01-23 12:15:43pm, dynamic, 1_6_vs_2_6, false, RIGHT, 2435, 0, 1, 1, 0
91,2019-01-23 12:15:45pm, dynamic, 1_6_vs_2_6, true, LEFT, 2181, 0, 0, 0, 0
92,2019-01-23 12:15:47pm, dynamic, 1_6_vs_2_6, true, LEFT, 2179, 0, 0, 0, 0
93,2019-01-23 12:15:49pm, dynamic, 1_6_vs_2_6, false, RIGHT, 2179, 0, 0, 0, 0
94,2019-01-23 12:15:51pm, dynamic, 1_6_vs_2_6, true, LEFT, 2143, 1, 0, 1, 0
95,2019-01-23 12:15:54pm, dynamic, 1_6_vs_2_6, true, LEFT, 2234, 0, 0, 0, 0
96,2019-01-23 12:15:56pm, dynamic, 1_6_vs_2_6, false, RIGHT, 2178, 0, 0, 0, 0
97,2019-01-23 12:15:58pm, dynamic, 1_6_vs_2_6, true, LEFT, 2168, 1, 0, 1, 0
98,2019-01-23 12:16:00pm, dynamic, 1_6_vs_2_6, true, LEFT, 2247, 0, 0, 0, 0
99,2019-01-23 12:16:03pm, dynamic, 1_6_vs_2_6, true, LEFT, 2291, 1, 1, 1, 1
