trial_number, time, schedule_type, schedule_name, is_biased_choice, side_choice, RT, observed_reward, unobserved_reward, biased_reward, unbiased_reward
0,2019-01-24 10:04:18am, dynamic, 1_6_vs_2_6, false, LEFT, 8861, 0, 0, 0, 0
1,2019-01-24 10:04:23am, dynamic, 1_6_vs_2_6, false, LEFT, 4976, 0, 1, 1, 0
2,2019-01-24 10:04:26am, dynamic, 1_6_vs_2_6, true, RIGHT, 3073, 1, 0, 1, 0
3,2019-01-24 10:04:30am, dynamic, 1_6_vs_2_6, true, RIGHT, 3632, 0, 0, 0, 0
4,2019-01-24 10:04:33am, dynamic, 1_6_vs_2_6, false, LEFT, 3231, 0, 0, 0, 0
5,2019-01-24 10:04:42am, dynamic, 1_6_vs_2_6, true, RIGHT, 8845, 1, 0, 1, 0
6,2019-01-24 10:04:47am, dynamic, 1_6_vs_2_6, true, RIGHT, 4991, 0, 0, 0, 0
7,2019-01-24 10:04:56am, dynamic, 1_6_vs_2_6, true, RIGHT, 8927, 1, 0, 1, 0
8,2019-01-24 10:05:00am, dynamic, 1_6_vs_2_6, false, LEFT, 4471, 0, 0, 0, 0
9,2019-01-24 10:05:04am, dynamic, 1_6_vs_2_6, false, LEFT, 3501, 0, 0, 0, 0
10,2019-01-24 10:05:07am, dynamic, 1_6_vs_2_6, true, RIGHT, 3124, 0, 0, 0, 0
11,2019-01-24 10:05:11am, dynamic, 1_6_vs_2_6, true, RIGHT, 3691, 1, 0, 1, 0
12,2019-01-24 10:05:17am, dynamic, 1_6_vs_2_6, false, LEFT, 6726, 1, 0, 0, 1
13,2019-01-24 10:05:22am, dynamic, 1_6_vs_2_6, true, RIGHT, 5230, 1, 0, 1, 0
14,2019-01-24 10:05:33am, dynamic, 1_6_vs_2_6, false, LEFT, 10386, 0, 1, 1, 0
15,2019-01-24 10:05:36am, dynamic, 1_6_vs_2_6, true, RIGHT, 3183, 1, 0, 1, 0
16,2019-01-24 10:05:39am, dynamic, 1_6_vs_2_6, true, RIGHT, 3033, 1, 1, 1, 1
17,2019-01-24 10:05:42am, dynamic, 1_6_vs_2_6, true, RIGHT, 3289, 0, 0, 0, 0
18,2019-01-24 10:05:47am, dynamic, 1_6_vs_2_6, true, RIGHT, 4268, 0, 0, 0, 0
19,2019-01-24 10:05:50am, dynamic, 1_6_vs_2_6, false, LEFT, 3790, 0, 0, 0, 0
20,2019-01-24 10:05:57am, dynamic, 1_6_vs_2_6, true, RIGHT, 6753, 0, 0, 0, 0
21,2019-01-24 10:06:02am, dynamic, 1_6_vs_2_6, true, RIGHT, 4767, 0, 0, 0, 0
22,2019-01-24 10:06:06am, dynamic, 1_6_vs_2_6, false, LEFT, 4374, 0, 0, 0, 0
23,2019-01-24 10:06:10am, dynamic, 1_6_vs_2_6, false, LEFT, 3721, 0, 1, 1, 0
24,2019-01-24 10:06:13am, dynamic, 1_6_vs_2_6, true, RIGHT, 3414, 0, 0, 0, 0
25,2019-01-24 10:06:20am, dynamic, 1_6_vs_2_6, true, RIGHT, 6726, 1, 1, 1, 1
26,2019-01-24 10:06:24am, dynamic, 1_6_vs_2_6, true, RIGHT, 3397, 0, 0, 0, 0
27,2019-01-24 10:06:56am, dynamic, 1_6_vs_2_6, false, LEFT, 32323, 0, 0, 0, 0
28,2019-01-24 10:06:59am, dynamic, 1_6_vs_2_6, true, RIGHT, 3354, 0, 0, 0, 0
29,2019-01-24 10:07:02am, dynamic, 1_6_vs_2_6, true, RIGHT, 2933, 0, 0, 0, 0
30,2019-01-24 10:07:07am, dynamic, 1_6_vs_2_6, true, RIGHT, 4389, 1, 0, 1, 0
31,2019-01-24 10:07:11am, dynamic, 1_6_vs_2_6, true, RIGHT, 2948, 0, 0, 0, 0
32,2019-01-24 10:07:14am, dynamic, 1_6_vs_2_6, true, RIGHT, 4624, 1, 1, 1, 1
33,2019-01-24 10:07:29am, dynamic, 1_6_vs_2_6, true, RIGHT, 15098, 1, 0, 1, 0
34,2019-01-24 10:07:32am, dynamic, 1_6_vs_2_6, true, RIGHT, 3136, 0, 1, 0, 1
35,2019-01-24 10:07:36am, dynamic, 1_6_vs_2_6, true, RIGHT, 3242, 0, 0, 0, 0
36,2019-01-24 10:07:42am, dynamic, 1_6_vs_2_6, true, RIGHT, 6676, 0, 0, 0, 0
37,2019-01-24 10:07:48am, dynamic, 1_6_vs_2_6, false, LEFT, 5273, 0, 0, 0, 0
38,2019-01-24 10:07:53am, dynamic, 1_6_vs_2_6, true, RIGHT, 5707, 0, 0, 0, 0
39,2019-01-24 10:08:14am, dynamic, 1_6_vs_2_6, true, RIGHT, 20471, 0, 1, 0, 1
40,2019-01-24 10:08:19am, dynamic, 1_6_vs_2_6, true, RIGHT, 4971, 0, 0, 0, 0
41,2019-01-24 10:08:21am, dynamic, 1_6_vs_2_6, true, RIGHT, 2823, 0, 0, 0, 0
42,2019-01-24 10:08:31am, dynamic, 1_6_vs_2_6, true, RIGHT, 9288, 0, 0, 0, 0
43,2019-01-24 10:08:34am, dynamic, 1_6_vs_2_6, false, LEFT, 3541, 0, 0, 0, 0
44,2019-01-24 10:08:37am, dynamic, 1_6_vs_2_6, true, RIGHT, 3114, 0, 0, 0, 0
45,2019-01-24 10:08:45am, dynamic, 1_6_vs_2_6, true, RIGHT, 7780, 1, 0, 1, 0
46,2019-01-24 10:08:51am, dynamic, 1_6_vs_2_6, true, RIGHT, 5965, 0, 0, 0, 0
47,2019-01-24 10:08:54am, dynamic, 1_6_vs_2_6, true, RIGHT, 3019, 1, 0, 1, 0
48,2019-01-24 10:09:02am, dynamic, 1_6_vs_2_6, true, RIGHT, 7736, 0, 0, 0, 0
49,2019-01-24 10:09:25am, dynamic, 1_6_vs_2_6, true, RIGHT, 23449, 1, 0, 1, 0
50,2019-01-24 10:09:28am, dynamic, 1_6_vs_2_6, true, RIGHT, 2505, 1, 0, 1, 0
51,2019-01-24 10:09:31am, dynamic, 1_6_vs_2_6, true, RIGHT, 3537, 1, 0, 1, 0
52,2019-01-24 10:09:38am, dynamic, 1_6_vs_2_6, true, RIGHT, 6676, 0, 0, 0, 0
53,2019-01-24 10:09:43am, dynamic, 1_6_vs_2_6, true, RIGHT, 4597, 0, 1, 0, 1
54,2019-01-24 10:09:46am, dynamic, 1_6_vs_2_6, false, LEFT, 3429, 0, 1, 1, 0
55,2019-01-24 10:09:49am, dynamic, 1_6_vs_2_6, true, RIGHT, 3002, 0, 0, 0, 0
56,2019-01-24 10:09:52am, dynamic, 1_6_vs_2_6, true, RIGHT, 3337, 0, 0, 0, 0
57,2019-01-24 10:09:57am, dynamic, 1_6_vs_2_6, true, RIGHT, 4349, 0, 0, 0, 0
58,2019-01-24 10:10:20am, dynamic, 1_6_vs_2_6, true, RIGHT, 23314, 1, 0, 1, 0
59,2019-01-24 10:10:23am, dynamic, 1_6_vs_2_6, true, RIGHT, 2747, 0, 1, 0, 1
60,2019-01-24 10:10:26am, dynamic, 1_6_vs_2_6, true, RIGHT, 3040, 1, 0, 1, 0
61,2019-01-24 10:10:29am, dynamic, 1_6_vs_2_6, true, RIGHT, 2613, 0, 0, 0, 0
62,2019-01-24 10:10:31am, dynamic, 1_6_vs_2_6, true, RIGHT, 2450, 0, 1, 0, 1
63,2019-01-24 10:10:35am, dynamic, 1_6_vs_2_6, true, RIGHT, 3609, 0, 0, 0, 0
64,2019-01-24 10:10:37am, dynamic, 1_6_vs_2_6, true, RIGHT, 2904, 1, 1, 1, 1
65,2019-01-24 10:10:41am, dynamic, 1_6_vs_2_6, true, RIGHT, 3959, 0, 0, 0, 0
66,2019-01-24 10:10:48am, dynamic, 1_6_vs_2_6, true, RIGHT, 6469, 0, 1, 0, 1
67,2019-01-24 10:11:09am, dynamic, 1_6_vs_2_6, true, RIGHT, 21473, 0, 0, 0, 0
68,2019-01-24 10:11:13am, dynamic, 1_6_vs_2_6, false, LEFT, 3733, 0, 0, 0, 0
69,2019-01-24 10:11:17am, dynamic, 1_6_vs_2_6, false, LEFT, 3271, 0, 0, 0, 0
70,2019-01-24 10:11:22am, dynamic, 1_6_vs_2_6, false, LEFT, 5976, 0, 0, 0, 0
71,2019-01-24 10:11:36am, dynamic, 1_6_vs_2_6, true, RIGHT, 13380, 0, 0, 0, 0
72,2019-01-24 10:11:41am, dynamic, 1_6_vs_2_6, true, RIGHT, 5661, 0, 0, 0, 0
73,2019-01-24 10:11:45am, dynamic, 1_6_vs_2_6, true, RIGHT, 3453, 0, 1, 0, 1
74,2019-01-24 10:11:48am, dynamic, 1_6_vs_2_6, true, RIGHT, 3182, 1, 0, 1, 0
75,2019-01-24 10:11:52am, dynamic, 1_6_vs_2_6, true, RIGHT, 3667, 1, 0, 1, 0
76,2019-01-24 10:11:57am, dynamic, 1_6_vs_2_6, true, RIGHT, 5130, 0, 1, 0, 1
77,2019-01-24 10:12:00am, dynamic, 1_6_vs_2_6, true, RIGHT, 3386, 1, 0, 1, 0
78,2019-01-24 10:12:03am, dynamic, 1_6_vs_2_6, true, RIGHT, 3011, 1, 1, 1, 1
79,2019-01-24 10:12:09am, dynamic, 1_6_vs_2_6, true, RIGHT, 5465, 0, 0, 0, 0
80,2019-01-24 10:12:25am, dynamic, 1_6_vs_2_6, true, RIGHT, 16450, 1, 0, 1, 0
81,2019-01-24 10:12:28am, dynamic, 1_6_vs_2_6, true, RIGHT, 2924, 0, 0, 0, 0
82,2019-01-24 10:12:31am, dynamic, 1_6_vs_2_6, true, RIGHT, 3066, 1, 0, 1, 0
83,2019-01-24 10:12:34am, dynamic, 1_6_vs_2_6, true, RIGHT, 3044, 0, 0, 0, 0
84,2019-01-24 10:12:40am, dynamic, 1_6_vs_2_6, true, RIGHT, 5571, 1, 0, 1, 0
85,2019-01-24 10:12:46am, dynamic, 1_6_vs_2_6, true, RIGHT, 6256, 0, 0, 0, 0
86,2019-01-24 10:12:49am, dynamic, 1_6_vs_2_6, true, RIGHT, 2512, 1, 0, 1, 0
87,2019-01-24 10:12:52am, dynamic, 1_6_vs_2_6, true, RIGHT, 3595, 1, 0, 1, 0
88,2019-01-24 10:12:56am, dynamic, 1_6_vs_2_6, true, RIGHT, 3822, 1, 1, 1, 1
89,2019-01-24 10:12:59am, dynamic, 1_6_vs_2_6, true, RIGHT, 2948, 0, 0, 0, 0
90,2019-01-24 10:13:03am, dynamic, 1_6_vs_2_6, true, RIGHT, 4444, 0, 0, 0, 0
91,2019-01-24 10:13:07am, dynamic, 1_6_vs_2_6, true, RIGHT, 3364, 0, 0, 0, 0
92,2019-01-24 10:13:10am, dynamic, 1_6_vs_2_6, true, RIGHT, 3303, 0, 1, 0, 1
93,2019-01-24 10:13:20am, dynamic, 1_6_vs_2_6, true, RIGHT, 9972, 0, 0, 0, 0
94,2019-01-24 10:13:23am, dynamic, 1_6_vs_2_6, true, RIGHT, 2879, 0, 0, 0, 0
95,2019-01-24 10:13:26am, dynamic, 1_6_vs_2_6, true, RIGHT, 2619, 0, 0, 0, 0
96,2019-01-24 10:13:30am, dynamic, 1_6_vs_2_6, true, RIGHT, 4063, 0, 0, 0, 0
97,2019-01-24 10:13:38am, dynamic, 1_6_vs_2_6, true, RIGHT, 8863, 0, 0, 0, 0
98,2019-01-24 10:13:41am, dynamic, 1_6_vs_2_6, true, RIGHT, 2894, 0, 0, 0, 0
99,2019-01-24 10:13:44am, dynamic, 1_6_vs_2_6, true, RIGHT, 2839, 0, 0, 0, 0
