[{"RT":4565,"time": "2018-08-15 03:27:48pm", "schedule_type": "STATIC", "schedule_name": "random_19", "is_biased_choice":false,"side_choice": "RIGHT", "trial_number":0,"observed_reward":0,"unobserved_reward":0},{"RT":4740,"time": "2018-08-15 03:27:53pm", "schedule_type": "STATIC", "schedule_name": "random_19", "is_biased_choice":true,"side_choice": "LEFT", "trial_number":1,"observed_reward":1,"unobserved_reward":0},{"RT":3409,"time": "2018-08-15 03:27:56pm", "schedule_type": "STATIC", "schedule_name": "random_19", "is_biased_choice":true,"side_choice": "LEFT", "trial_number":2,"observed_reward":0,"unobserved_reward":0},{"RT":4032,"time": "2018-08-15 03:28:00pm", "schedule_type": "STATIC", "schedule_name": "random_19", "is_biased_choice":false,"side_choice": "RIGHT", "trial_number":3,"observed_reward":0,"unobserved_reward":0},{"RT":3269,"time": "2018-08-15 03:28:03pm", "schedule_type": "STATIC", "schedule_name": "random_19", "is_biased_choice":true,"side_choice": "LEFT", "trial_number":4,"observed_reward":0,"unobserved_reward":0},{"RT":5642,"time": "2018-08-15 03:28:09pm", "schedule_type": "STATIC", "schedule_name": "random_19", "is_biased_choice":false,"side_choice": "RIGHT", "trial_number":5,"observed_reward":1,"unobserved_reward":1},{"RT":5500,"time": "2018-08-15 03:28:14pm", "schedule_type": "STATIC", "schedule_name": "random_19", "is_biased_choice":false,"side_choice": "RIGHT", "trial_number":6,"observed_reward":0,"unobserved_reward":0},{"RT":4521,"time": "2018-08-15 03:28:19pm", "schedule_type": "STATIC", "schedule_name": "random_19", "is_biased_choice":false,"side_choice": "RIGHT", "trial_number":7,"observed_reward":0,"unobserved_reward":0},{"RT":3186,"time": "2018-08-15 03:28:22pm", "schedule_type": "STATIC", "schedule_name": "random_19", "is_biased_choice":true,"side_choice": "LEFT", "trial_number":8,"observed_reward":1,"unobserved_reward":0},{"RT":3582,"time": "2018-08-15 03:28:26pm", "schedule_type": "STATIC", "schedule_name": "random_19", "is_biased_choice":true,"side_choice": "LEFT", "trial_number":9,"observed_reward":0,"unobserved_reward":0},{"RT":3924,"time": "2018-08-15 03:28:30pm", "schedule_type": "STATIC", "schedule_name": "random_19", "is_biased_choice":false,"side_choice": "RIGHT", "trial_number":10,"observed_reward":0,"unobserved_reward":0},{"RT":3372,"time": "2018-08-15 03:28:33pm", "schedule_type": "STATIC", "schedule_name": "random_19", "is_biased_choice":true,"side_choice": "LEFT", "trial_number":11,"observed_reward":0,"unobserved_reward":0},{"RT":3054,"time": "2018-08-15 03:28:36pm", "schedule_type": "STATIC", "schedule_name": "random_19", "is_biased_choice":true,"side_choice": "LEFT", "trial_number":12,"observed_reward":0,"unobserved_reward":0},{"RT":3854,"time": "2018-08-15 03:28:40pm", "schedule_type": "STATIC", "schedule_name": "random_19", "is_biased_choice":false,"side_choice": "RIGHT", "trial_number":13,"observed_reward":0,"unobserved_reward":0},{"RT":3288,"time": "2018-08-15 03:28:43pm", "schedule_type": "STATIC", "schedule_name": "random_19", "is_biased_choice":true,"side_choice": "LEFT", "trial_number":14,"observed_reward":0,"unobserved_reward":0},{"RT":16262,"time": "2018-08-15 03:28:59pm", "schedule_type": "STATIC", "schedule_name": "random_19", "is_biased_choice":true,"side_choice": "LEFT", "trial_number":15,"observed_reward":1,"unobserved_reward":1},{"RT":3945,"time": "2018-08-15 03:29:03pm", "schedule_type": "STATIC", "schedule_name": "random_19", "is_biased_choice":true,"side_choice": "LEFT", "trial_number":16,"observed_reward":1,"unobserved_reward":1},{"RT":3816,"time": "2018-08-15 03:29:07pm", "schedule_type": "STATIC", "schedule_name": "random_19", "is_biased_choice":true,"side_choice": "LEFT", "trial_number":17,"observed_reward":0,"unobserved_reward":1},{"RT":3604,"time": "2018-08-15 03:29:11pm", "schedule_type": "STATIC", "schedule_name": "random_19", "is_biased_choice":true,"side_choice": "LEFT", "trial_number":18,"observed_reward":0,"unobserved_reward":0},{"RT":3301,"time": "2018-08-15 03:29:15pm", "schedule_type": "STATIC", "schedule_name": "random_19", "is_biased_choice":false,"side_choice": "RIGHT", "trial_number":19,"observed_reward":0,"unobserved_reward":0},{"RT":3155,"time": "2018-08-15 03:29:17pm", "schedule_type": "STATIC", "schedule_name": "random_19", "is_biased_choice":true,"side_choice": "LEFT", "trial_number":20,"observed_reward":0,"unobserved_reward":0},{"RT":3635,"time": "2018-08-15 03:29:21pm", "schedule_type": "STATIC", "schedule_name": "random_19", "is_biased_choice":true,"side_choice": "LEFT", "trial_number":21,"observed_reward":0,"unobserved_reward":1},{"RT":3272,"time": "2018-08-15 03:29:24pm", "schedule_type": "STATIC", "schedule_name": "random_19", "is_biased_choice":false,"side_choice": "RIGHT", "trial_number":22,"observed_reward":0,"unobserved_reward":0},{"RT":3171,"time": "2018-08-15 03:29:27pm", "schedule_type": "STATIC", "schedule_name": "random_19", "is_biased_choice":false,"side_choice": "RIGHT", "trial_number":23,"observed_reward":1,"unobserved_reward":0},{"RT":3417,"time": "2018-08-15 03:29:31pm", "schedule_type": "STATIC", "schedule_name": "random_19", "is_biased_choice":false,"side_choice": "RIGHT", "trial_number":24,"observed_reward":1,"unobserved_reward":0},{"RT":3226,"time": "2018-08-15 03:29:34pm", "schedule_type": "STATIC", "schedule_name": "random_19", "is_biased_choice":false,"side_choice": "RIGHT", "trial_number":25,"observed_reward":0,"unobserved_reward":0},{"RT":3208,"time": "2018-08-15 03:29:37pm", "schedule_type": "STATIC", "schedule_name": "random_19", "is_biased_choice":false,"side_choice": "RIGHT", "trial_number":26,"observed_reward":0,"unobserved_reward":0},{"RT":3129,"time": "2018-08-15 03:29:40pm", "schedule_type": "STATIC", "schedule_name": "random_19", "is_biased_choice":false,"side_choice": "RIGHT", "trial_number":27,"observed_reward":0,"unobserved_reward":1},{"RT":3103,"time": "2018-08-15 03:29:43pm", "schedule_type": "STATIC", "schedule_name": "random_19", "is_biased_choice":true,"side_choice": "LEFT", "trial_number":28,"observed_reward":1,"unobserved_reward":0},{"RT":3200,"time": "2018-08-15 03:29:47pm", "schedule_type": "STATIC", "schedule_name": "random_19", "is_biased_choice":true,"side_choice": "LEFT", "trial_number":29,"observed_reward":1,"unobserved_reward":0},{"RT":5858,"time": "2018-08-15 03:29:52pm", "schedule_type": "STATIC", "schedule_name": "random_19", "is_biased_choice":true,"side_choice": "LEFT", "trial_number":30,"observed_reward":0,"unobserved_reward":0},{"RT":3761,"time": "2018-08-15 03:29:56pm", "schedule_type": "STATIC", "schedule_name": "random_19", "is_biased_choice":false,"side_choice": "RIGHT", "trial_number":31,"observed_reward":1,"unobserved_reward":1},{"RT":3378,"time": "2018-08-15 03:30:00pm", "schedule_type": "STATIC", "schedule_name": "random_19", "is_biased_choice":false,"side_choice": "RIGHT", "trial_number":32,"observed_reward":0,"unobserved_reward":0},{"RT":3847,"time": "2018-08-15 03:30:03pm", "schedule_type": "STATIC", "schedule_name": "random_19", "is_biased_choice":true,"side_choice": "LEFT", "trial_number":33,"observed_reward":0,"unobserved_reward":0},{"RT":3396,"time": "2018-08-15 03:30:07pm", "schedule_type": "STATIC", "schedule_name": "random_19", "is_biased_choice":true,"side_choice": "LEFT", "trial_number":34,"observed_reward":0,"unobserved_reward":0},{"RT":4304,"time": "2018-08-15 03:30:11pm", "schedule_type": "STATIC", "schedule_name": "random_19", "is_biased_choice":false,"side_choice": "RIGHT", "trial_number":35,"observed_reward":0,"unobserved_reward":0},{"RT":13270,"time": "2018-08-15 03:30:24pm", "schedule_type": "STATIC", "schedule_name": "random_19", "is_biased_choice":false,"side_choice": "RIGHT", "trial_number":36,"observed_reward":1,"unobserved_reward":1},{"RT":3457,"time": "2018-08-15 03:30:28pm", "schedule_type": "STATIC", "schedule_name": "random_19", "is_biased_choice":false,"side_choice": "RIGHT", "trial_number":37,"observed_reward":0,"unobserved_reward":0},{"RT":3381,"time": "2018-08-15 03:30:31pm", "schedule_type": "STATIC", "schedule_name": "random_19", "is_biased_choice":true,"side_choice": "LEFT", "trial_number":38,"observed_reward":0,"unobserved_reward":1},{"RT":6458,"time": "2018-08-15 03:30:38pm", "schedule_type": "STATIC", "schedule_name": "random_19", "is_biased_choice":false,"side_choice": "RIGHT", "trial_number":39,"observed_reward":0,"unobserved_reward":0},{"RT":3060,"time": "2018-08-15 03:30:41pm", "schedule_type": "STATIC", "schedule_name": "random_19", "is_biased_choice":false,"side_choice": "RIGHT", "trial_number":40,"observed_reward":0,"unobserved_reward":1},{"RT":3140,"time": "2018-08-15 03:30:44pm", "schedule_type": "STATIC", "schedule_name": "random_19", "is_biased_choice":true,"side_choice": "LEFT", "trial_number":41,"observed_reward":0,"unobserved_reward":0},{"RT":3256,"time": "2018-08-15 03:30:47pm", "schedule_type": "STATIC", "schedule_name": "random_19", "is_biased_choice":false,"side_choice": "RIGHT", "trial_number":42,"observed_reward":0,"unobserved_reward":0},{"RT":3961,"time": "2018-08-15 03:30:51pm", "schedule_type": "STATIC", "schedule_name": "random_19", "is_biased_choice":false,"side_choice": "RIGHT", "trial_number":43,"observed_reward":0,"unobserved_reward":0},{"RT":3295,"time": "2018-08-15 03:30:54pm", "schedule_type": "STATIC", "schedule_name": "random_19", "is_biased_choice":false,"side_choice": "RIGHT", "trial_number":44,"observed_reward":1,"unobserved_reward":0},{"RT":3552,"time": "2018-08-15 03:30:58pm", "schedule_type": "STATIC", "schedule_name": "random_19", "is_biased_choice":false,"side_choice": "RIGHT", "trial_number":45,"observed_reward":0,"unobserved_reward":0},{"RT":3681,"time": "2018-08-15 03:31:02pm", "schedule_type": "STATIC", "schedule_name": "random_19", "is_biased_choice":false,"side_choice": "RIGHT", "trial_number":46,"observed_reward":0,"unobserved_reward":0},{"RT":3150,"time": "2018-08-15 03:31:05pm", "schedule_type": "STATIC", "schedule_name": "random_19", "is_biased_choice":false,"side_choice": "RIGHT", "trial_number":47,"observed_reward":1,"unobserved_reward":0},{"RT":3807,"time": "2018-08-15 03:31:09pm", "schedule_type": "STATIC", "schedule_name": "random_19", "is_biased_choice":true,"side_choice": "LEFT", "trial_number":48,"observed_reward":1,"unobserved_reward":0},{"RT":3604,"time": "2018-08-15 03:31:12pm", "schedule_type": "STATIC", "schedule_name": "random_19", "is_biased_choice":true,"side_choice": "LEFT", "trial_number":49,"observed_reward":0,"unobserved_reward":1},{"RT":3397,"time": "2018-08-15 03:31:16pm", "schedule_type": "STATIC", "schedule_name": "random_19", "is_biased_choice":true,"side_choice": "LEFT", "trial_number":50,"observed_reward":0,"unobserved_reward":1},{"RT":3643,"time": "2018-08-15 03:31:19pm", "schedule_type": "STATIC", "schedule_name": "random_19", "is_biased_choice":true,"side_choice": "LEFT", "trial_number":51,"observed_reward":1,"unobserved_reward":0},{"RT":4079,"time": "2018-08-15 03:31:23pm", "schedule_type": "STATIC", "schedule_name": "random_19", "is_biased_choice":false,"side_choice": "RIGHT", "trial_number":52,"observed_reward":0,"unobserved_reward":1},{"RT":3060,"time": "2018-08-15 03:31:26pm", "schedule_type": "STATIC", "schedule_name": "random_19", "is_biased_choice":false,"side_choice": "RIGHT", "trial_number":53,"observed_reward":0,"unobserved_reward":1},{"RT":3178,"time": "2018-08-15 03:31:30pm", "schedule_type": "STATIC", "schedule_name": "random_19", "is_biased_choice":false,"side_choice": "RIGHT", "trial_number":54,"observed_reward":1,"unobserved_reward":0},{"RT":3825,"time": "2018-08-15 03:31:33pm", "schedule_type": "STATIC", "schedule_name": "random_19", "is_biased_choice":false,"side_choice": "RIGHT", "trial_number":55,"observed_reward":0,"unobserved_reward":1},{"RT":3332,"time": "2018-08-15 03:31:37pm", "schedule_type": "STATIC", "schedule_name": "random_19", "is_biased_choice":false,"side_choice": "RIGHT", "trial_number":56,"observed_reward":0,"unobserved_reward":0},{"RT":3209,"time": "2018-08-15 03:31:40pm", "schedule_type": "STATIC", "schedule_name": "random_19", "is_biased_choice":false,"side_choice": "RIGHT", "trial_number":57,"observed_reward":0,"unobserved_reward":0},{"RT":3386,"time": "2018-08-15 03:31:43pm", "schedule_type": "STATIC", "schedule_name": "random_19", "is_biased_choice":false,"side_choice": "RIGHT", "trial_number":58,"observed_reward":0,"unobserved_reward":1},{"RT":3087,"time": "2018-08-15 03:31:46pm", "schedule_type": "STATIC", "schedule_name": "random_19", "is_biased_choice":true,"side_choice": "LEFT", "trial_number":59,"observed_reward":0,"unobserved_reward":0},{"RT":2928,"time": "2018-08-15 03:31:49pm", "schedule_type": "STATIC", "schedule_name": "random_19", "is_biased_choice":true,"side_choice": "LEFT", "trial_number":60,"observed_reward":0,"unobserved_reward":0},{"RT":16482,"time": "2018-08-15 03:32:06pm", "schedule_type": "STATIC", "schedule_name": "random_19", "is_biased_choice":false,"side_choice": "RIGHT", "trial_number":61,"observed_reward":0,"unobserved_reward":1},{"RT":2914,"time": "2018-08-15 03:32:09pm", "schedule_type": "STATIC", "schedule_name": "random_19", "is_biased_choice":true,"side_choice": "LEFT", "trial_number":62,"observed_reward":0,"unobserved_reward":0},{"RT":3288,"time": "2018-08-15 03:32:12pm", "schedule_type": "STATIC", "schedule_name": "random_19", "is_biased_choice":false,"side_choice": "RIGHT", "trial_number":63,"observed_reward":0,"unobserved_reward":0},{"RT":3240,"time": "2018-08-15 03:32:15pm", "schedule_type": "STATIC", "schedule_name": "random_19", "is_biased_choice":false,"side_choice": "RIGHT", "trial_number":64,"observed_reward":0,"unobserved_reward":0},{"RT":3441,"time": "2018-08-15 03:32:19pm", "schedule_type": "STATIC", "schedule_name": "random_19", "is_biased_choice":false,"side_choice": "RIGHT", "trial_number":65,"observed_reward":0,"unobserved_reward":0},{"RT":3240,"time": "2018-08-15 03:32:22pm", "schedule_type": "STATIC", "schedule_name": "random_19", "is_biased_choice":true,"side_choice": "LEFT", "trial_number":66,"observed_reward":0,"unobserved_reward":1},{"RT":3480,"time": "2018-08-15 03:32:25pm", "schedule_type": "STATIC", "schedule_name": "random_19", "is_biased_choice":true,"side_choice": "LEFT", "trial_number":67,"observed_reward":1,"unobserved_reward":0},{"RT":3700,"time": "2018-08-15 03:32:29pm", "schedule_type": "STATIC", "schedule_name": "random_19", "is_biased_choice":true,"side_choice": "LEFT", "trial_number":68,"observed_reward":0,"unobserved_reward":0},{"RT":3553,"time": "2018-08-15 03:32:33pm", "schedule_type": "STATIC", "schedule_name": "random_19", "is_biased_choice":false,"side_choice": "RIGHT", "trial_number":69,"observed_reward":1,"unobserved_reward":1},{"RT":3673,"time": "2018-08-15 03:32:36pm", "schedule_type": "STATIC", "schedule_name": "random_19", "is_biased_choice":true,"side_choice": "LEFT", "trial_number":70,"observed_reward":1,"unobserved_reward":0},{"RT":3335,"time": "2018-08-15 03:32:40pm", "schedule_type": "STATIC", "schedule_name": "random_19", "is_biased_choice":false,"side_choice": "RIGHT", "trial_number":71,"observed_reward":0,"unobserved_reward":0},{"RT":3761,"time": "2018-08-15 03:32:43pm", "schedule_type": "STATIC", "schedule_name": "random_19", "is_biased_choice":true,"side_choice": "LEFT", "trial_number":72,"observed_reward":0,"unobserved_reward":0},{"RT":3458,"time": "2018-08-15 03:32:47pm", "schedule_type": "STATIC", "schedule_name": "random_19", "is_biased_choice":true,"side_choice": "LEFT", "trial_number":73,"observed_reward":0,"unobserved_reward":0},{"RT":3318,"time": "2018-08-15 03:32:50pm", "schedule_type": "STATIC", "schedule_name": "random_19", "is_biased_choice":false,"side_choice": "RIGHT", "trial_number":74,"observed_reward":1,"unobserved_reward":0},{"RT":4608,"time": "2018-08-15 03:32:55pm", "schedule_type": "STATIC", "schedule_name": "random_19", "is_biased_choice":false,"side_choice": "RIGHT", "trial_number":75,"observed_reward":0,"unobserved_reward":0},{"RT":2999,"time": "2018-08-15 03:32:58pm", "schedule_type": "STATIC", "schedule_name": "random_19", "is_biased_choice":true,"side_choice": "LEFT", "trial_number":76,"observed_reward":1,"unobserved_reward":0},{"RT":3278,"time": "2018-08-15 03:33:01pm", "schedule_type": "STATIC", "schedule_name": "random_19", "is_biased_choice":false,"side_choice": "RIGHT", "trial_number":77,"observed_reward":1,"unobserved_reward":0},{"RT":3504,"time": "2018-08-15 03:33:05pm", "schedule_type": "STATIC", "schedule_name": "random_19", "is_biased_choice":true,"side_choice": "LEFT", "trial_number":78,"observed_reward":0,"unobserved_reward":0},{"RT":3002,"time": "2018-08-15 03:33:08pm", "schedule_type": "STATIC", "schedule_name": "random_19", "is_biased_choice":true,"side_choice": "LEFT", "trial_number":79,"observed_reward":0,"unobserved_reward":0},{"RT":3815,"time": "2018-08-15 03:33:11pm", "schedule_type": "STATIC", "schedule_name": "random_19", "is_biased_choice":false,"side_choice": "RIGHT", "trial_number":80,"observed_reward":0,"unobserved_reward":1},{"RT":3085,"time": "2018-08-15 03:33:14pm", "schedule_type": "STATIC", "schedule_name": "random_19", "is_biased_choice":false,"side_choice": "RIGHT", "trial_number":81,"observed_reward":0,"unobserved_reward":0},{"RT":2983,"time": "2018-08-15 03:33:17pm", "schedule_type": "STATIC", "schedule_name": "random_19", "is_biased_choice":true,"side_choice": "LEFT", "trial_number":82,"observed_reward":0,"unobserved_reward":0},{"RT":3224,"time": "2018-08-15 03:33:21pm", "schedule_type": "STATIC", "schedule_name": "random_19", "is_biased_choice":false,"side_choice": "RIGHT", "trial_number":83,"observed_reward":0,"unobserved_reward":0},{"RT":3055,"time": "2018-08-15 03:33:24pm", "schedule_type": "STATIC", "schedule_name": "random_19", "is_biased_choice":false,"side_choice": "RIGHT", "trial_number":84,"observed_reward":0,"unobserved_reward":0},{"RT":4211,"time": "2018-08-15 03:33:28pm", "schedule_type": "STATIC", "schedule_name": "random_19", "is_biased_choice":false,"side_choice": "RIGHT", "trial_number":85,"observed_reward":0,"unobserved_reward":0},{"RT":2782,"time": "2018-08-15 03:33:31pm", "schedule_type": "STATIC", "schedule_name": "random_19", "is_biased_choice":false,"side_choice": "RIGHT", "trial_number":86,"observed_reward":0,"unobserved_reward":0},{"RT":2930,"time": "2018-08-15 03:33:34pm", "schedule_type": "STATIC", "schedule_name": "random_19", "is_biased_choice":true,"side_choice": "LEFT", "trial_number":87,"observed_reward":0,"unobserved_reward":0},{"RT":3124,"time": "2018-08-15 03:33:37pm", "schedule_type": "STATIC", "schedule_name": "random_19", "is_biased_choice":true,"side_choice": "LEFT", "trial_number":88,"observed_reward":0,"unobserved_reward":1},{"RT":3101,"time": "2018-08-15 03:33:40pm", "schedule_type": "STATIC", "schedule_name": "random_19", "is_biased_choice":false,"side_choice": "RIGHT", "trial_number":89,"observed_reward":1,"unobserved_reward":0},{"RT":3504,"time": "2018-08-15 03:33:43pm", "schedule_type": "STATIC", "schedule_name": "random_19", "is_biased_choice":false,"side_choice": "RIGHT", "trial_number":90,"observed_reward":1,"unobserved_reward":0},{"RT":3747,"time": "2018-08-15 03:33:47pm", "schedule_type": "STATIC", "schedule_name": "random_19", "is_biased_choice":false,"side_choice": "RIGHT", "trial_number":91,"observed_reward":0,"unobserved_reward":0},{"RT":2781,"time": "2018-08-15 03:33:50pm", "schedule_type": "STATIC", "schedule_name": "random_19", "is_biased_choice":true,"side_choice": "LEFT", "trial_number":92,"observed_reward":0,"unobserved_reward":1},{"RT":3154,"time": "2018-08-15 03:33:53pm", "schedule_type": "STATIC", "schedule_name": "random_19", "is_biased_choice":true,"side_choice": "LEFT", "trial_number":93,"observed_reward":0,"unobserved_reward":0},{"RT":3504,"time": "2018-08-15 03:33:57pm", "schedule_type": "STATIC", "schedule_name": "random_19", "is_biased_choice":false,"side_choice": "RIGHT", "trial_number":94,"observed_reward":1,"unobserved_reward":1},{"RT":5284,"time": "2018-08-15 03:34:02pm", "schedule_type": "STATIC", "schedule_name": "random_19", "is_biased_choice":false,"side_choice": "RIGHT", "trial_number":95,"observed_reward":0,"unobserved_reward":0},{"RT":4523,"time": "2018-08-15 03:34:06pm", "schedule_type": "STATIC", "schedule_name": "random_19", "is_biased_choice":true,"side_choice": "LEFT", "trial_number":96,"observed_reward":0,"unobserved_reward":0},{"RT":3869,"time": "2018-08-15 03:34:10pm", "schedule_type": "STATIC", "schedule_name": "random_19", "is_biased_choice":false,"side_choice": "RIGHT", "trial_number":97,"observed_reward":1,"unobserved_reward":0},{"RT":3405,"time": "2018-08-15 03:34:14pm", "schedule_type": "STATIC", "schedule_name": "random_19", "is_biased_choice":false,"side_choice": "RIGHT", "trial_number":98,"observed_reward":0,"unobserved_reward":0},