[{"RT":9611,"time": "2018-08-15 05:30:57pm", "schedule_type": "STATIC", "schedule_name": "random_19", "is_biased_choice":true,"side_choice": "LEFT", "trial_number":0,"observed_reward":0,"unobserved_reward":0},{"RT":13767,"time": "2018-08-15 05:31:11pm", "schedule_type": "STATIC", "schedule_name": "random_19", "is_biased_choice":false,"side_choice": "RIGHT", "trial_number":1,"observed_reward":0,"unobserved_reward":1},{"RT":4671,"time": "2018-08-15 05:31:16pm", "schedule_type": "STATIC", "schedule_name": "random_19", "is_biased_choice":false,"side_choice": "RIGHT", "trial_number":2,"observed_reward":0,"unobserved_reward":0},{"RT":3248,"time": "2018-08-15 05:31:19pm", "schedule_type": "STATIC", "schedule_name": "random_19", "is_biased_choice":true,"side_choice": "LEFT", "trial_number":3,"observed_reward":0,"unobserved_reward":0},{"RT":5344,"time": "2018-08-15 05:31:24pm", "schedule_type": "STATIC", "schedule_name": "random_19", "is_biased_choice":false,"side_choice": "RIGHT", "trial_number":4,"observed_reward":0,"unobserved_reward":0},{"RT":2664,"time": "2018-08-15 05:31:27pm", "schedule_type": "STATIC", "schedule_name": "random_19", "is_biased_choice":false,"side_choice": "RIGHT", "trial_number":5,"observed_reward":1,"unobserved_reward":1},{"RT":4127,"time": "2018-08-15 05:31:31pm", "schedule_type": "STATIC", "schedule_name": "random_19", "is_biased_choice":true,"side_choice": "LEFT", "trial_number":6,"observed_reward":0,"unobserved_reward":0},{"RT":3193,"time": "2018-08-15 05:31:35pm", "schedule_type": "STATIC", "schedule_name": "random_19", "is_biased_choice":true,"side_choice": "LEFT", "trial_number":7,"observed_reward":0,"unobserved_reward":0},{"RT":2479,"time": "2018-08-15 05:31:37pm", "schedule_type": "STATIC", "schedule_name": "random_19", "is_biased_choice":false,"side_choice": "RIGHT", "trial_number":8,"observed_reward":0,"unobserved_reward":1},{"RT":3353,"time": "2018-08-15 05:31:40pm", "schedule_type": "STATIC", "schedule_name": "random_19", "is_biased_choice":true,"side_choice": "LEFT", "trial_number":9,"observed_reward":0,"unobserved_reward":0},{"RT":2727,"time": "2018-08-15 05:31:43pm", "schedule_type": "STATIC", "schedule_name": "random_19", "is_biased_choice":true,"side_choice": "LEFT", "trial_number":10,"observed_reward":0,"unobserved_reward":0},{"RT":2456,"time": "2018-08-15 05:31:45pm", "schedule_type": "STATIC", "schedule_name": "random_19", "is_biased_choice":false,"side_choice": "RIGHT", "trial_number":11,"observed_reward":0,"unobserved_reward":0},{"RT":2848,"time": "2018-08-15 05:31:48pm", "schedule_type": "STATIC", "schedule_name": "random_19", "is_biased_choice":true,"side_choice": "LEFT", "trial_number":12,"observed_reward":0,"unobserved_reward":0},{"RT":2392,"time": "2018-08-15 05:31:50pm", "schedule_type": "STATIC", "schedule_name": "random_19", "is_biased_choice":false,"side_choice": "RIGHT", "trial_number":13,"observed_reward":0,"unobserved_reward":0},{"RT":2792,"time": "2018-08-15 05:31:54pm", "schedule_type": "STATIC", "schedule_name": "random_19", "is_biased_choice":false,"side_choice": "RIGHT", "trial_number":14,"observed_reward":0,"unobserved_reward":0},{"RT":2936,"time": "2018-08-15 05:31:56pm", "schedule_type": "STATIC", "schedule_name": "random_19", "is_biased_choice":false,"side_choice": "RIGHT", "trial_number":15,"observed_reward":1,"unobserved_reward":1},{"RT":3564,"time": "2018-08-15 05:32:00pm", "schedule_type": "STATIC", "schedule_name": "random_19", "is_biased_choice":false,"side_choice": "RIGHT", "trial_number":16,"observed_reward":1,"unobserved_reward":1},{"RT":2992,"time": "2018-08-15 05:32:03pm", "schedule_type": "STATIC", "schedule_name": "random_19", "is_biased_choice":false,"side_choice": "RIGHT", "trial_number":17,"observed_reward":1,"unobserved_reward":0},{"RT":3648,"time": "2018-08-15 05:32:07pm", "schedule_type": "STATIC", "schedule_name": "random_19", "is_biased_choice":false,"side_choice": "RIGHT", "trial_number":18,"observed_reward":0,"unobserved_reward":0},{"RT":3120,"time": "2018-08-15 05:32:09pm", "schedule_type": "STATIC", "schedule_name": "random_19", "is_biased_choice":false,"side_choice": "RIGHT", "trial_number":19,"observed_reward":0,"unobserved_reward":0},{"RT":2744,"time": "2018-08-15 05:32:13pm", "schedule_type": "STATIC", "schedule_name": "random_19", "is_biased_choice":false,"side_choice": "RIGHT", "trial_number":20,"observed_reward":0,"unobserved_reward":0},{"RT":2376,"time": "2018-08-15 05:32:15pm", "schedule_type": "STATIC", "schedule_name": "random_19", "is_biased_choice":true,"side_choice": "LEFT", "trial_number":21,"observed_reward":0,"unobserved_reward":1},{"RT":2559,"time": "2018-08-15 05:32:17pm", "schedule_type": "STATIC", "schedule_name": "random_19", "is_biased_choice":true,"side_choice": "LEFT", "trial_number":22,"observed_reward":0,"unobserved_reward":0},{"RT":3008,"time": "2018-08-15 05:32:20pm", "schedule_type": "STATIC", "schedule_name": "random_19", "is_biased_choice":true,"side_choice": "LEFT", "trial_number":23,"observed_reward":0,"unobserved_reward":1},{"RT":2689,"time": "2018-08-15 05:32:23pm", "schedule_type": "STATIC", "schedule_name": "random_19", "is_biased_choice":false,"side_choice": "RIGHT", "trial_number":24,"observed_reward":1,"unobserved_reward":0},{"RT":4055,"time": "2018-08-15 05:32:27pm", "schedule_type": "STATIC", "schedule_name": "random_19", "is_biased_choice":false,"side_choice": "RIGHT", "trial_number":25,"observed_reward":0,"unobserved_reward":0},{"RT":4176,"time": "2018-08-15 05:32:31pm", "schedule_type": "STATIC", "schedule_name": "random_19", "is_biased_choice":false,"side_choice": "RIGHT", "trial_number":26,"observed_reward":0,"unobserved_reward":0},{"RT":3120,"time": "2018-08-15 05:32:35pm", "schedule_type": "STATIC", "schedule_name": "random_19", "is_biased_choice":false,"side_choice": "RIGHT", "trial_number":27,"observed_reward":0,"unobserved_reward":1},{"RT":3328,"time": "2018-08-15 05:32:38pm", "schedule_type": "STATIC", "schedule_name": "random_19", "is_biased_choice":false,"side_choice": "RIGHT", "trial_number":28,"observed_reward":0,"unobserved_reward":1},{"RT":3136,"time": "2018-08-15 05:32:41pm", "schedule_type": "STATIC", "schedule_name": "random_19", "is_biased_choice":false,"side_choice": "RIGHT", "trial_number":29,"observed_reward":0,"unobserved_reward":1},{"RT":3023,"time": "2018-08-15 05:32:44pm", "schedule_type": "STATIC", "schedule_name": "random_19", "is_biased_choice":false,"side_choice": "RIGHT", "trial_number":30,"observed_reward":0,"unobserved_reward":0},{"RT":2953,"time": "2018-08-15 05:32:47pm", "schedule_type": "STATIC", "schedule_name": "random_19", "is_biased_choice":false,"side_choice": "RIGHT", "trial_number":31,"observed_reward":1,"unobserved_reward":1},{"RT":3263,"time": "2018-08-15 05:32:50pm", "schedule_type": "STATIC", "schedule_name": "random_19", "is_biased_choice":false,"side_choice": "RIGHT", "trial_number":32,"observed_reward":0,"unobserved_reward":0},{"RT":2977,"time": "2018-08-15 05:32:53pm", "schedule_type": "STATIC", "schedule_name": "random_19", "is_biased_choice":false,"side_choice": "RIGHT", "trial_number":33,"observed_reward":0,"unobserved_reward":0},{"RT":2960,"time": "2018-08-15 05:32:56pm", "schedule_type": "STATIC", "schedule_name": "random_19", "is_biased_choice":false,"side_choice": "RIGHT", "trial_number":34,"observed_reward":0,"unobserved_reward":0},{"RT":3067,"time": "2018-08-15 05:32:59pm", "schedule_type": "STATIC", "schedule_name": "random_19", "is_biased_choice":false,"side_choice": "RIGHT", "trial_number":35,"observed_reward":0,"unobserved_reward":0},{"RT":2881,"time": "2018-08-15 05:33:02pm", "schedule_type": "STATIC", "schedule_name": "random_19", "is_biased_choice":false,"side_choice": "RIGHT", "trial_number":36,"observed_reward":1,"unobserved_reward":1},{"RT":3590,"time": "2018-08-15 05:33:06pm", "schedule_type": "STATIC", "schedule_name": "random_19", "is_biased_choice":false,"side_choice": "RIGHT", "trial_number":37,"observed_reward":0,"unobserved_reward":0},{"RT":3449,"time": "2018-08-15 05:33:09pm", "schedule_type": "STATIC", "schedule_name": "random_19", "is_biased_choice":false,"side_choice": "RIGHT", "trial_number":38,"observed_reward":1,"unobserved_reward":0},{"RT":4024,"time": "2018-08-15 05:33:13pm", "schedule_type": "STATIC", "schedule_name": "random_19", "is_biased_choice":false,"side_choice": "RIGHT", "trial_number":39,"observed_reward":0,"unobserved_reward":0},{"RT":10639,"time": "2018-08-15 05:33:24pm", "schedule_type": "STATIC", "schedule_name": "random_19", "is_biased_choice":false,"side_choice": "RIGHT", "trial_number":40,"observed_reward":0,"unobserved_reward":1},{"RT":2689,"time": "2018-08-15 05:33:26pm", "schedule_type": "STATIC", "schedule_name": "random_19", "is_biased_choice":false,"side_choice": "RIGHT", "trial_number":41,"observed_reward":0,"unobserved_reward":0},{"RT":2752,"time": "2018-08-15 05:33:29pm", "schedule_type": "STATIC", "schedule_name": "random_19", "is_biased_choice":false,"side_choice": "RIGHT", "trial_number":42,"observed_reward":0,"unobserved_reward":0},{"RT":2567,"time": "2018-08-15 05:33:32pm", "schedule_type": "STATIC", "schedule_name": "random_19", "is_biased_choice":false,"side_choice": "RIGHT", "trial_number":43,"observed_reward":0,"unobserved_reward":0},{"RT":2664,"time": "2018-08-15 05:33:35pm", "schedule_type": "STATIC", "schedule_name": "random_19", "is_biased_choice":false,"side_choice": "RIGHT", "trial_number":44,"observed_reward":1,"unobserved_reward":0},{"RT":2793,"time": "2018-08-15 05:33:37pm", "schedule_type": "STATIC", "schedule_name": "random_19", "is_biased_choice":false,"side_choice": "RIGHT", "trial_number":45,"observed_reward":0,"unobserved_reward":0},{"RT":2823,"time": "2018-08-15 05:33:40pm", "schedule_type": "STATIC", "schedule_name": "random_19", "is_biased_choice":false,"side_choice": "RIGHT", "trial_number":46,"observed_reward":0,"unobserved_reward":0},{"RT":2744,"time": "2018-08-15 05:33:43pm", "schedule_type": "STATIC", "schedule_name": "random_19", "is_biased_choice":false,"side_choice": "RIGHT", "trial_number":47,"observed_reward":1,"unobserved_reward":0},{"RT":2952,"time": "2018-08-15 05:33:46pm", "schedule_type": "STATIC", "schedule_name": "random_19", "is_biased_choice":false,"side_choice": "RIGHT", "trial_number":48,"observed_reward":0,"unobserved_reward":1},{"RT":3008,"time": "2018-08-15 05:33:49pm", "schedule_type": "STATIC", "schedule_name": "random_19", "is_biased_choice":false,"side_choice": "RIGHT", "trial_number":49,"observed_reward":1,"unobserved_reward":0},{"RT":3376,"time": "2018-08-15 05:33:52pm", "schedule_type": "STATIC", "schedule_name": "random_19", "is_biased_choice":false,"side_choice": "RIGHT", "trial_number":50,"observed_reward":1,"unobserved_reward":0},{"RT":3271,"time": "2018-08-15 05:33:56pm", "schedule_type": "STATIC", "schedule_name": "random_19", "is_biased_choice":false,"side_choice": "RIGHT", "trial_number":51,"observed_reward":0,"unobserved_reward":1},{"RT":3468,"time": "2018-08-15 05:33:59pm", "schedule_type": "STATIC", "schedule_name": "random_19", "is_biased_choice":false,"side_choice": "RIGHT", "trial_number":52,"observed_reward":0,"unobserved_reward":1},{"RT":2688,"time": "2018-08-15 05:34:01pm", "schedule_type": "STATIC", "schedule_name": "random_19", "is_biased_choice":false,"side_choice": "RIGHT", "trial_number":53,"observed_reward":0,"unobserved_reward":1},{"RT":2536,"time": "2018-08-15 05:34:04pm", "schedule_type": "STATIC", "schedule_name": "random_19", "is_biased_choice":false,"side_choice": "RIGHT", "trial_number":54,"observed_reward":1,"unobserved_reward":0},{"RT":2472,"time": "2018-08-15 05:34:06pm", "schedule_type": "STATIC", "schedule_name": "random_19", "is_biased_choice":false,"side_choice": "RIGHT", "trial_number":55,"observed_reward":0,"unobserved_reward":1},{"RT":3192,"time": "2018-08-15 05:34:10pm", "schedule_type": "STATIC", "schedule_name": "random_19", "is_biased_choice":false,"side_choice": "RIGHT", "trial_number":56,"observed_reward":0,"unobserved_reward":0},{"RT":3943,"time": "2018-08-15 05:34:14pm", "schedule_type": "STATIC", "schedule_name": "random_19", "is_biased_choice":false,"side_choice": "RIGHT", "trial_number":57,"observed_reward":0,"unobserved_reward":0},{"RT":2449,"time": "2018-08-15 05:34:16pm", "schedule_type": "STATIC", "schedule_name": "random_19", "is_biased_choice":false,"side_choice": "RIGHT", "trial_number":58,"observed_reward":0,"unobserved_reward":1},{"RT":2464,"time": "2018-08-15 05:34:19pm", "schedule_type": "STATIC", "schedule_name": "random_19", "is_biased_choice":false,"side_choice": "RIGHT", "trial_number":59,"observed_reward":0,"unobserved_reward":0},{"RT":2527,"time": "2018-08-15 05:34:21pm", "schedule_type": "STATIC", "schedule_name": "random_19", "is_biased_choice":false,"side_choice": "RIGHT", "trial_number":60,"observed_reward":0,"unobserved_reward":0},{"RT":2577,"time": "2018-08-15 05:34:24pm", "schedule_type": "STATIC", "schedule_name": "random_19", "is_biased_choice":false,"side_choice": "RIGHT", "trial_number":61,"observed_reward":0,"unobserved_reward":1},{"RT":2487,"time": "2018-08-15 05:34:26pm", "schedule_type": "STATIC", "schedule_name": "random_19", "is_biased_choice":false,"side_choice": "RIGHT", "trial_number":62,"observed_reward":0,"unobserved_reward":0},{"RT":2809,"time": "2018-08-15 05:34:29pm", "schedule_type": "STATIC", "schedule_name": "random_19", "is_biased_choice":false,"side_choice": "RIGHT", "trial_number":63,"observed_reward":0,"unobserved_reward":0},{"RT":2551,"time": "2018-08-15 05:34:31pm", "schedule_type": "STATIC", "schedule_name": "random_19", "is_biased_choice":false,"side_choice": "RIGHT", "trial_number":64,"observed_reward":0,"unobserved_reward":0},{"RT":2592,"time": "2018-08-15 05:34:34pm", "schedule_type": "STATIC", "schedule_name": "random_19", "is_biased_choice":false,"side_choice": "RIGHT", "trial_number":65,"observed_reward":0,"unobserved_reward":0},{"RT":2752,"time": "2018-08-15 05:34:37pm", "schedule_type": "STATIC", "schedule_name": "random_19", "is_biased_choice":true,"side_choice": "LEFT", "trial_number":66,"observed_reward":0,"unobserved_reward":1},{"RT":2319,"time": "2018-08-15 05:34:39pm", "schedule_type": "STATIC", "schedule_name": "random_19", "is_biased_choice":true,"side_choice": "LEFT", "trial_number":67,"observed_reward":1,"unobserved_reward":0},{"RT":2560,"time": "2018-08-15 05:34:42pm", "schedule_type": "STATIC", "schedule_name": "random_19", "is_biased_choice":true,"side_choice": "LEFT", "trial_number":68,"observed_reward":0,"unobserved_reward":0},{"RT":2409,"time": "2018-08-15 05:34:44pm", "schedule_type": "STATIC", "schedule_name": "random_19", "is_biased_choice":false,"side_choice": "RIGHT", "trial_number":69,"observed_reward":1,"unobserved_reward":1},{"RT":2839,"time": "2018-08-15 05:34:47pm", "schedule_type": "STATIC", "schedule_name": "random_19", "is_biased_choice":false,"side_choice": "RIGHT", "trial_number":70,"observed_reward":0,"unobserved_reward":1},{"RT":2913,"time": "2018-08-15 05:34:50pm", "schedule_type": "STATIC", "schedule_name": "random_19", "is_biased_choice":true,"side_choice": "LEFT", "trial_number":71,"observed_reward":0,"unobserved_reward":0},{"RT":2536,"time": "2018-08-15 05:34:53pm", "schedule_type": "STATIC", "schedule_name": "random_19", "is_biased_choice":true,"side_choice": "LEFT", "trial_number":72,"observed_reward":0,"unobserved_reward":0},{"RT":2519,"time": "2018-08-15 05:34:55pm", "schedule_type": "STATIC", "schedule_name": "random_19", "is_biased_choice":true,"side_choice": "LEFT", "trial_number":73,"observed_reward":0,"unobserved_reward":0},{"RT":2400,"time": "2018-08-15 05:34:57pm", "schedule_type": "STATIC", "schedule_name": "random_19", "is_biased_choice":true,"side_choice": "LEFT", "trial_number":74,"observed_reward":0,"unobserved_reward":1},{"RT":2557,"time": "2018-08-15 05:35:00pm", "schedule_type": "STATIC", "schedule_name": "random_19", "is_biased_choice":false,"side_choice": "RIGHT", "trial_number":75,"observed_reward":0,"unobserved_reward":0},{"RT":2383,"time": "2018-08-15 05:35:03pm", "schedule_type": "STATIC", "schedule_name": "random_19", "is_biased_choice":false,"side_choice": "RIGHT", "trial_number":76,"observed_reward":0,"unobserved_reward":1},{"RT":4049,"time": "2018-08-15 05:35:06pm", "schedule_type": "STATIC", "schedule_name": "random_19", "is_biased_choice":false,"side_choice": "RIGHT", "trial_number":77,"observed_reward":1,"unobserved_reward":0},{"RT":2615,"time": "2018-08-15 05:35:09pm", "schedule_type": "STATIC", "schedule_name": "random_19", "is_biased_choice":false,"side_choice": "RIGHT", "trial_number":78,"observed_reward":0,"unobserved_reward":0},{"RT":2992,"time": "2018-08-15 05:35:12pm", "schedule_type": "STATIC", "schedule_name": "random_19", "is_biased_choice":false,"side_choice": "RIGHT", "trial_number":79,"observed_reward":0,"unobserved_reward":0},{"RT":2503,"time": "2018-08-15 05:35:15pm", "schedule_type": "STATIC", "schedule_name": "random_19", "is_biased_choice":false,"side_choice": "RIGHT", "trial_number":80,"observed_reward":0,"unobserved_reward":1},{"RT":2672,"time": "2018-08-15 05:35:17pm", "schedule_type": "STATIC", "schedule_name": "random_19", "is_biased_choice":false,"side_choice": "RIGHT", "trial_number":81,"observed_reward":0,"unobserved_reward":0},{"RT":2337,"time": "2018-08-15 05:35:19pm", "schedule_type": "STATIC", "schedule_name": "random_19", "is_biased_choice":false,"side_choice": "RIGHT", "trial_number":82,"observed_reward":0,"unobserved_reward":0},{"RT":2248,"time": "2018-08-15 05:35:22pm", "schedule_type": "STATIC", "schedule_name": "random_19", "is_biased_choice":false,"side_choice": "RIGHT", "trial_number":83,"observed_reward":0,"unobserved_reward":0},{"RT":2192,"time": "2018-08-15 05:35:24pm", "schedule_type": "STATIC", "schedule_name": "random_19", "is_biased_choice":true,"side_choice": "LEFT", "trial_number":84,"observed_reward":0,"unobserved_reward":0},{"RT":2143,"time": "2018-08-15 05:35:26pm", "schedule_type": "STATIC", "schedule_name": "random_19", "is_biased_choice":true,"side_choice": "LEFT", "trial_number":85,"observed_reward":0,"unobserved_reward":0},{"RT":2264,"time": "2018-08-15 05:35:28pm", "schedule_type": "STATIC", "schedule_name": "random_19", "is_biased_choice":false,"side_choice": "RIGHT", "trial_number":86,"observed_reward":0,"unobserved_reward":0},{"RT":2305,"time": "2018-08-15 05:35:30pm", "schedule_type": "STATIC", "schedule_name": "random_19", "is_biased_choice":false,"side_choice": "RIGHT", "trial_number":87,"observed_reward":0,"unobserved_reward":0},{"RT":4215,"time": "2018-08-15 05:35:35pm", "schedule_type": "STATIC", "schedule_name": "random_19", "is_biased_choice":false,"side_choice": "RIGHT", "trial_number":88,"observed_reward":1,"unobserved_reward":0},{"RT":3144,"time": "2018-08-15 05:35:38pm", "schedule_type": "STATIC", "schedule_name": "random_19", "is_biased_choice":false,"side_choice": "RIGHT", "trial_number":89,"observed_reward":1,"unobserved_reward":0},{"RT":2568,"time": "2018-08-15 05:35:40pm", "schedule_type": "STATIC", "schedule_name": "random_19", "is_biased_choice":false,"side_choice": "RIGHT", "trial_number":90,"observed_reward":1,"unobserved_reward":0},{"RT":2648,"time": "2018-08-15 05:35:43pm", "schedule_type": "STATIC", "schedule_name": "random_19", "is_biased_choice":false,"side_choice": "RIGHT", "trial_number":91,"observed_reward":0,"unobserved_reward":0},{"RT":2903,"time": "2018-08-15 05:35:46pm", "schedule_type": "STATIC", "schedule_name": "random_19", "is_biased_choice":false,"side_choice": "RIGHT", "trial_number":92,"observed_reward":1,"unobserved_reward":0},{"RT":2857,"time": "2018-08-15 05:35:49pm", "schedule_type": "STATIC", "schedule_name": "random_19", "is_biased_choice":false,"side_choice": "RIGHT", "trial_number":93,"observed_reward":0,"unobserved_reward":0},{"RT":2576,"time": "2018-08-15 05:35:51pm", "schedule_type": "STATIC", "schedule_name": "random_19", "is_biased_choice":false,"side_choice": "RIGHT", "trial_number":94,"observed_reward":1,"unobserved_reward":1},{"RT":2880,"time": "2018-08-15 05:35:55pm", "schedule_type": "STATIC", "schedule_name": "random_19", "is_biased_choice":false,"side_choice": "RIGHT", "trial_number":95,"observed_reward":0,"unobserved_reward":0},{"RT":2448,"time": "2018-08-15 05:35:57pm", "schedule_type": "STATIC", "schedule_name": "random_19", "is_biased_choice":false,"side_choice": "RIGHT", "trial_number":96,"observed_reward":0,"unobserved_reward":0},{"RT":2997,"time": "2018-08-15 05:36:00pm", "schedule_type": "STATIC", "schedule_name": "random_19", "is_biased_choice":false,"side_choice": "RIGHT", "trial_number":97,"observed_reward":1,"unobserved_reward":0},{"RT":2607,"time": "2018-08-15 05:36:02pm", "schedule_type": "STATIC", "schedule_name": "random_19", "is_biased_choice":false,"side_choice": "RIGHT", "trial_number":98,"observed_reward":0,"unobserved_reward":0},