[{"RT":1812,"time": "2018-08-15 03:33:49pm", "schedule_type": "STATIC", "schedule_name": "random_17", "is_biased_choice":false,"side_choice": "LEFT", "trial_number":0,"observed_reward":0,"unobserved_reward":0},{"RT":3417,"time": "2018-08-15 03:33:53pm", "schedule_type": "STATIC", "schedule_name": "random_17", "is_biased_choice":true,"side_choice": "RIGHT", "trial_number":1,"observed_reward":0,"unobserved_reward":0},{"RT":2908,"time": "2018-08-15 03:33:56pm", "schedule_type": "STATIC", "schedule_name": "random_17", "is_biased_choice":true,"side_choice": "RIGHT", "trial_number":2,"observed_reward":0,"unobserved_reward":0},{"RT":2868,"time": "2018-08-15 03:33:58pm", "schedule_type": "STATIC", "schedule_name": "random_17", "is_biased_choice":true,"side_choice": "RIGHT", "trial_number":3,"observed_reward":1,"unobserved_reward":0},{"RT":2983,"time": "2018-08-15 03:34:01pm", "schedule_type": "STATIC", "schedule_name": "random_17", "is_biased_choice":true,"side_choice": "RIGHT", "trial_number":4,"observed_reward":0,"unobserved_reward":0},{"RT":3136,"time": "2018-08-15 03:34:05pm", "schedule_type": "STATIC", "schedule_name": "random_17", "is_biased_choice":false,"side_choice": "LEFT", "trial_number":5,"observed_reward":0,"unobserved_reward":0},{"RT":3346,"time": "2018-08-15 03:34:08pm", "schedule_type": "STATIC", "schedule_name": "random_17", "is_biased_choice":false,"side_choice": "LEFT", "trial_number":6,"observed_reward":0,"unobserved_reward":1},{"RT":2735,"time": "2018-08-15 03:34:11pm", "schedule_type": "STATIC", "schedule_name": "random_17", "is_biased_choice":false,"side_choice": "LEFT", "trial_number":7,"observed_reward":0,"unobserved_reward":0},{"RT":2615,"time": "2018-08-15 03:34:13pm", "schedule_type": "STATIC", "schedule_name": "random_17", "is_biased_choice":false,"side_choice": "LEFT", "trial_number":8,"observed_reward":0,"unobserved_reward":0},{"RT":2526,"time": "2018-08-15 03:34:16pm", "schedule_type": "STATIC", "schedule_name": "random_17", "is_biased_choice":false,"side_choice": "LEFT", "trial_number":9,"observed_reward":1,"unobserved_reward":0},{"RT":2707,"time": "2018-08-15 03:34:18pm", "schedule_type": "STATIC", "schedule_name": "random_17", "is_biased_choice":false,"side_choice": "LEFT", "trial_number":10,"observed_reward":0,"unobserved_reward":1},{"RT":2615,"time": "2018-08-15 03:34:21pm", "schedule_type": "STATIC", "schedule_name": "random_17", "is_biased_choice":false,"side_choice": "LEFT", "trial_number":11,"observed_reward":1,"unobserved_reward":1},{"RT":2569,"time": "2018-08-15 03:34:24pm", "schedule_type": "STATIC", "schedule_name": "random_17", "is_biased_choice":false,"side_choice": "LEFT", "trial_number":12,"observed_reward":0,"unobserved_reward":0},{"RT":2509,"time": "2018-08-15 03:34:26pm", "schedule_type": "STATIC", "schedule_name": "random_17", "is_biased_choice":false,"side_choice": "LEFT", "trial_number":13,"observed_reward":1,"unobserved_reward":1},{"RT":2607,"time": "2018-08-15 03:34:29pm", "schedule_type": "STATIC", "schedule_name": "random_17", "is_biased_choice":false,"side_choice": "LEFT", "trial_number":14,"observed_reward":0,"unobserved_reward":0},{"RT":2559,"time": "2018-08-15 03:34:31pm", "schedule_type": "STATIC", "schedule_name": "random_17", "is_biased_choice":false,"side_choice": "LEFT", "trial_number":15,"observed_reward":0,"unobserved_reward":0},{"RT":2822,"time": "2018-08-15 03:34:34pm", "schedule_type": "STATIC", "schedule_name": "random_17", "is_biased_choice":true,"side_choice": "RIGHT", "trial_number":16,"observed_reward":0,"unobserved_reward":1},{"RT":2516,"time": "2018-08-15 03:34:37pm", "schedule_type": "STATIC", "schedule_name": "random_17", "is_biased_choice":false,"side_choice": "LEFT", "trial_number":17,"observed_reward":0,"unobserved_reward":0},{"RT":2436,"time": "2018-08-15 03:34:39pm", "schedule_type": "STATIC", "schedule_name": "random_17", "is_biased_choice":false,"side_choice": "LEFT", "trial_number":18,"observed_reward":0,"unobserved_reward":0},{"RT":2499,"time": "2018-08-15 03:34:42pm", "schedule_type": "STATIC", "schedule_name": "random_17", "is_biased_choice":true,"side_choice": "RIGHT", "trial_number":19,"observed_reward":1,"unobserved_reward":0},{"RT":2550,"time": "2018-08-15 03:34:44pm", "schedule_type": "STATIC", "schedule_name": "random_17", "is_biased_choice":true,"side_choice": "RIGHT", "trial_number":20,"observed_reward":0,"unobserved_reward":1},{"RT":2383,"time": "2018-08-15 03:34:46pm", "schedule_type": "STATIC", "schedule_name": "random_17", "is_biased_choice":true,"side_choice": "RIGHT", "trial_number":21,"observed_reward":1,"unobserved_reward":0},{"RT":2535,"time": "2018-08-15 03:34:49pm", "schedule_type": "STATIC", "schedule_name": "random_17", "is_biased_choice":true,"side_choice": "RIGHT", "trial_number":22,"observed_reward":0,"unobserved_reward":0},{"RT":2431,"time": "2018-08-15 03:34:51pm", "schedule_type": "STATIC", "schedule_name": "random_17", "is_biased_choice":true,"side_choice": "RIGHT", "trial_number":23,"observed_reward":0,"unobserved_reward":0},{"RT":2522,"time": "2018-08-15 03:34:54pm", "schedule_type": "STATIC", "schedule_name": "random_17", "is_biased_choice":false,"side_choice": "LEFT", "trial_number":24,"observed_reward":1,"unobserved_reward":0},{"RT":2483,"time": "2018-08-15 03:34:56pm", "schedule_type": "STATIC", "schedule_name": "random_17", "is_biased_choice":false,"side_choice": "LEFT", "trial_number":25,"observed_reward":0,"unobserved_reward":0},{"RT":2528,"time": "2018-08-15 03:34:59pm", "schedule_type": "STATIC", "schedule_name": "random_17", "is_biased_choice":true,"side_choice": "RIGHT", "trial_number":26,"observed_reward":1,"unobserved_reward":0},{"RT":2600,"time": "2018-08-15 03:35:02pm", "schedule_type": "STATIC", "schedule_name": "random_17", "is_biased_choice":false,"side_choice": "LEFT", "trial_number":27,"observed_reward":0,"unobserved_reward":0},{"RT":2508,"time": "2018-08-15 03:35:04pm", "schedule_type": "STATIC", "schedule_name": "random_17", "is_biased_choice":false,"side_choice": "LEFT", "trial_number":28,"observed_reward":0,"unobserved_reward":0},{"RT":2492,"time": "2018-08-15 03:35:07pm", "schedule_type": "STATIC", "schedule_name": "random_17", "is_biased_choice":false,"side_choice": "LEFT", "trial_number":29,"observed_reward":0,"unobserved_reward":1},{"RT":2407,"time": "2018-08-15 03:35:09pm", "schedule_type": "STATIC", "schedule_name": "random_17", "is_biased_choice":false,"side_choice": "LEFT", "trial_number":30,"observed_reward":1,"unobserved_reward":0},{"RT":2443,"time": "2018-08-15 03:35:11pm", "schedule_type": "STATIC", "schedule_name": "random_17", "is_biased_choice":false,"side_choice": "LEFT", "trial_number":31,"observed_reward":0,"unobserved_reward":1},{"RT":2450,"time": "2018-08-15 03:35:14pm", "schedule_type": "STATIC", "schedule_name": "random_17", "is_biased_choice":false,"side_choice": "LEFT", "trial_number":32,"observed_reward":1,"unobserved_reward":0},{"RT":2616,"time": "2018-08-15 03:35:16pm", "schedule_type": "STATIC", "schedule_name": "random_17", "is_biased_choice":false,"side_choice": "LEFT", "trial_number":33,"observed_reward":1,"unobserved_reward":0},{"RT":2434,"time": "2018-08-15 03:35:19pm", "schedule_type": "STATIC", "schedule_name": "random_17", "is_biased_choice":false,"side_choice": "LEFT", "trial_number":34,"observed_reward":1,"unobserved_reward":0},{"RT":2482,"time": "2018-08-15 03:35:21pm", "schedule_type": "STATIC", "schedule_name": "random_17", "is_biased_choice":false,"side_choice": "LEFT", "trial_number":35,"observed_reward":0,"unobserved_reward":0},{"RT":2483,"time": "2018-08-15 03:35:24pm", "schedule_type": "STATIC", "schedule_name": "random_17", "is_biased_choice":true,"side_choice": "RIGHT", "trial_number":36,"observed_reward":0,"unobserved_reward":0},{"RT":2450,"time": "2018-08-15 03:35:26pm", "schedule_type": "STATIC", "schedule_name": "random_17", "is_biased_choice":false,"side_choice": "LEFT", "trial_number":37,"observed_reward":1,"unobserved_reward":1},{"RT":2472,"time": "2018-08-15 03:35:29pm", "schedule_type": "STATIC", "schedule_name": "random_17", "is_biased_choice":false,"side_choice": "LEFT", "trial_number":38,"observed_reward":0,"unobserved_reward":0},{"RT":2428,"time": "2018-08-15 03:35:31pm", "schedule_type": "STATIC", "schedule_name": "random_17", "is_biased_choice":false,"side_choice": "LEFT", "trial_number":39,"observed_reward":0,"unobserved_reward":0},{"RT":2471,"time": "2018-08-15 03:35:34pm", "schedule_type": "STATIC", "schedule_name": "random_17", "is_biased_choice":true,"side_choice": "RIGHT", "trial_number":40,"observed_reward":0,"unobserved_reward":0},{"RT":2451,"time": "2018-08-15 03:35:36pm", "schedule_type": "STATIC", "schedule_name": "random_17", "is_biased_choice":true,"side_choice": "RIGHT", "trial_number":41,"observed_reward":0,"unobserved_reward":1},{"RT":2481,"time": "2018-08-15 03:35:39pm", "schedule_type": "STATIC", "schedule_name": "random_17", "is_biased_choice":false,"side_choice": "LEFT", "trial_number":42,"observed_reward":0,"unobserved_reward":0},{"RT":2479,"time": "2018-08-15 03:35:41pm", "schedule_type": "STATIC", "schedule_name": "random_17", "is_biased_choice":true,"side_choice": "RIGHT", "trial_number":43,"observed_reward":1,"unobserved_reward":0},{"RT":2486,"time": "2018-08-15 03:35:44pm", "schedule_type": "STATIC", "schedule_name": "random_17", "is_biased_choice":true,"side_choice": "RIGHT", "trial_number":44,"observed_reward":0,"unobserved_reward":0},{"RT":2382,"time": "2018-08-15 03:35:46pm", "schedule_type": "STATIC", "schedule_name": "random_17", "is_biased_choice":true,"side_choice": "RIGHT", "trial_number":45,"observed_reward":0,"unobserved_reward":0},{"RT":2383,"time": "2018-08-15 03:35:48pm", "schedule_type": "STATIC", "schedule_name": "random_17", "is_biased_choice":true,"side_choice": "RIGHT", "trial_number":46,"observed_reward":0,"unobserved_reward":0},{"RT":2482,"time": "2018-08-15 03:35:51pm", "schedule_type": "STATIC", "schedule_name": "random_17", "is_biased_choice":true,"side_choice": "RIGHT", "trial_number":47,"observed_reward":0,"unobserved_reward":0},{"RT":2384,"time": "2018-08-15 03:35:53pm", "schedule_type": "STATIC", "schedule_name": "random_17", "is_biased_choice":true,"side_choice": "RIGHT", "trial_number":48,"observed_reward":0,"unobserved_reward":0},{"RT":2350,"time": "2018-08-15 03:35:56pm", "schedule_type": "STATIC", "schedule_name": "random_17", "is_biased_choice":true,"side_choice": "RIGHT", "trial_number":49,"observed_reward":0,"unobserved_reward":0},{"RT":2356,"time": "2018-08-15 03:35:58pm", "schedule_type": "STATIC", "schedule_name": "random_17", "is_biased_choice":true,"side_choice": "RIGHT", "trial_number":50,"observed_reward":1,"unobserved_reward":0},{"RT":2427,"time": "2018-08-15 03:36:00pm", "schedule_type": "STATIC", "schedule_name": "random_17", "is_biased_choice":true,"side_choice": "RIGHT", "trial_number":51,"observed_reward":0,"unobserved_reward":1},{"RT":2370,"time": "2018-08-15 03:36:03pm", "schedule_type": "STATIC", "schedule_name": "random_17", "is_biased_choice":false,"side_choice": "LEFT", "trial_number":52,"observed_reward":0,"unobserved_reward":0},{"RT":2348,"time": "2018-08-15 03:36:05pm", "schedule_type": "STATIC", "schedule_name": "random_17", "is_biased_choice":false,"side_choice": "LEFT", "trial_number":53,"observed_reward":0,"unobserved_reward":1},{"RT":2497,"time": "2018-08-15 03:36:08pm", "schedule_type": "STATIC", "schedule_name": "random_17", "is_biased_choice":true,"side_choice": "RIGHT", "trial_number":54,"observed_reward":0,"unobserved_reward":0},{"RT":2352,"time": "2018-08-15 03:36:10pm", "schedule_type": "STATIC", "schedule_name": "random_17", "is_biased_choice":true,"side_choice": "RIGHT", "trial_number":55,"observed_reward":1,"unobserved_reward":1},{"RT":2450,"time": "2018-08-15 03:36:12pm", "schedule_type": "STATIC", "schedule_name": "random_17", "is_biased_choice":true,"side_choice": "RIGHT", "trial_number":56,"observed_reward":0,"unobserved_reward":1},{"RT":2309,"time": "2018-08-15 03:36:15pm", "schedule_type": "STATIC", "schedule_name": "random_17", "is_biased_choice":false,"side_choice": "LEFT", "trial_number":57,"observed_reward":0,"unobserved_reward":0},{"RT":2275,"time": "2018-08-15 03:36:17pm", "schedule_type": "STATIC", "schedule_name": "random_17", "is_biased_choice":false,"side_choice": "LEFT", "trial_number":58,"observed_reward":1,"unobserved_reward":0},{"RT":2418,"time": "2018-08-15 03:36:19pm", "schedule_type": "STATIC", "schedule_name": "random_17", "is_biased_choice":false,"side_choice": "LEFT", "trial_number":59,"observed_reward":1,"unobserved_reward":0},{"RT":2413,"time": "2018-08-15 03:36:22pm", "schedule_type": "STATIC", "schedule_name": "random_17", "is_biased_choice":false,"side_choice": "LEFT", "trial_number":60,"observed_reward":1,"unobserved_reward":0},{"RT":2520,"time": "2018-08-15 03:36:24pm", "schedule_type": "STATIC", "schedule_name": "random_17", "is_biased_choice":true,"side_choice": "RIGHT", "trial_number":61,"observed_reward":0,"unobserved_reward":0},{"RT":2360,"time": "2018-08-15 03:36:27pm", "schedule_type": "STATIC", "schedule_name": "random_17", "is_biased_choice":true,"side_choice": "RIGHT", "trial_number":62,"observed_reward":1,"unobserved_reward":0},{"RT":2451,"time": "2018-08-15 03:36:29pm", "schedule_type": "STATIC", "schedule_name": "random_17", "is_biased_choice":false,"side_choice": "LEFT", "trial_number":63,"observed_reward":1,"unobserved_reward":0},{"RT":2383,"time": "2018-08-15 03:36:32pm", "schedule_type": "STATIC", "schedule_name": "random_17", "is_biased_choice":false,"side_choice": "LEFT", "trial_number":64,"observed_reward":0,"unobserved_reward":0},{"RT":2529,"time": "2018-08-15 03:36:34pm", "schedule_type": "STATIC", "schedule_name": "random_17", "is_biased_choice":true,"side_choice": "RIGHT", "trial_number":65,"observed_reward":0,"unobserved_reward":0},{"RT":2443,"time": "2018-08-15 03:36:36pm", "schedule_type": "STATIC", "schedule_name": "random_17", "is_biased_choice":false,"side_choice": "LEFT", "trial_number":66,"observed_reward":1,"unobserved_reward":0},{"RT":2466,"time": "2018-08-15 03:36:39pm", "schedule_type": "STATIC", "schedule_name": "random_17", "is_biased_choice":false,"side_choice": "LEFT", "trial_number":67,"observed_reward":0,"unobserved_reward":0},{"RT":3074,"time": "2018-08-15 03:36:42pm", "schedule_type": "STATIC", "schedule_name": "random_17", "is_biased_choice":true,"side_choice": "RIGHT", "trial_number":68,"observed_reward":0,"unobserved_reward":1},{"RT":2345,"time": "2018-08-15 03:36:44pm", "schedule_type": "STATIC", "schedule_name": "random_17", "is_biased_choice":true,"side_choice": "RIGHT", "trial_number":69,"observed_reward":0,"unobserved_reward":1},{"RT":2361,"time": "2018-08-15 03:36:47pm", "schedule_type": "STATIC", "schedule_name": "random_17", "is_biased_choice":true,"side_choice": "RIGHT", "trial_number":70,"observed_reward":0,"unobserved_reward":0},{"RT":2391,"time": "2018-08-15 03:36:49pm", "schedule_type": "STATIC", "schedule_name": "random_17", "is_biased_choice":false,"side_choice": "LEFT", "trial_number":71,"observed_reward":0,"unobserved_reward":0},{"RT":2411,"time": "2018-08-15 03:36:52pm", "schedule_type": "STATIC", "schedule_name": "random_17", "is_biased_choice":false,"side_choice": "LEFT", "trial_number":72,"observed_reward":1,"unobserved_reward":0},{"RT":2466,"time": "2018-08-15 03:36:54pm", "schedule_type": "STATIC", "schedule_name": "random_17", "is_biased_choice":false,"side_choice": "LEFT", "trial_number":73,"observed_reward":0,"unobserved_reward":1},{"RT":2483,"time": "2018-08-15 03:36:56pm", "schedule_type": "STATIC", "schedule_name": "random_17", "is_biased_choice":true,"side_choice": "RIGHT", "trial_number":74,"observed_reward":1,"unobserved_reward":0},{"RT":2439,"time": "2018-08-15 03:36:59pm", "schedule_type": "STATIC", "schedule_name": "random_17", "is_biased_choice":true,"side_choice": "RIGHT", "trial_number":75,"observed_reward":0,"unobserved_reward":0},{"RT":2458,"time": "2018-08-15 03:37:01pm", "schedule_type": "STATIC", "schedule_name": "random_17", "is_biased_choice":false,"side_choice": "LEFT", "trial_number":76,"observed_reward":1,"unobserved_reward":0},{"RT":2685,"time": "2018-08-15 03:37:04pm", "schedule_type": "STATIC", "schedule_name": "random_17", "is_biased_choice":false,"side_choice": "LEFT", "trial_number":77,"observed_reward":0,"unobserved_reward":1},{"RT":2392,"time": "2018-08-15 03:37:06pm", "schedule_type": "STATIC", "schedule_name": "random_17", "is_biased_choice":true,"side_choice": "RIGHT", "trial_number":78,"observed_reward":0,"unobserved_reward":0},{"RT":2339,"time": "2018-08-15 03:37:09pm", "schedule_type": "STATIC", "schedule_name": "random_17", "is_biased_choice":true,"side_choice": "RIGHT", "trial_number":79,"observed_reward":0,"unobserved_reward":0},{"RT":2424,"time": "2018-08-15 03:37:11pm", "schedule_type": "STATIC", "schedule_name": "random_17", "is_biased_choice":true,"side_choice": "RIGHT", "trial_number":80,"observed_reward":1,"unobserved_reward":0},{"RT":2403,"time": "2018-08-15 03:37:14pm", "schedule_type": "STATIC", "schedule_name": "random_17", "is_biased_choice":true,"side_choice": "RIGHT", "trial_number":81,"observed_reward":1,"unobserved_reward":0},{"RT":2396,"time": "2018-08-15 03:37:16pm", "schedule_type": "STATIC", "schedule_name": "random_17", "is_biased_choice":false,"side_choice": "LEFT", "trial_number":82,"observed_reward":0,"unobserved_reward":1},{"RT":2446,"time": "2018-08-15 03:37:18pm", "schedule_type": "STATIC", "schedule_name": "random_17", "is_biased_choice":true,"side_choice": "RIGHT", "trial_number":83,"observed_reward":0,"unobserved_reward":0},{"RT":2867,"time": "2018-08-15 03:37:22pm", "schedule_type": "STATIC", "schedule_name": "random_17", "is_biased_choice":false,"side_choice": "LEFT", "trial_number":84,"observed_reward":0,"unobserved_reward":0},{"RT":2566,"time": "2018-08-15 03:37:24pm", "schedule_type": "STATIC", "schedule_name": "random_17", "is_biased_choice":false,"side_choice": "LEFT", "trial_number":85,"observed_reward":0,"unobserved_reward":0},{"RT":2384,"time": "2018-08-15 03:37:26pm", "schedule_type": "STATIC", "schedule_name": "random_17", "is_biased_choice":false,"side_choice": "LEFT", "trial_number":86,"observed_reward":0,"unobserved_reward":0},{"RT":2368,"time": "2018-08-15 03:37:29pm", "schedule_type": "STATIC", "schedule_name": "random_17", "is_biased_choice":false,"side_choice": "LEFT", "trial_number":87,"observed_reward":0,"unobserved_reward":0},{"RT":2300,"time": "2018-08-15 03:37:31pm", "schedule_type": "STATIC", "schedule_name": "random_17", "is_biased_choice":false,"side_choice": "LEFT", "trial_number":88,"observed_reward":0,"unobserved_reward":0},{"RT":2399,"time": "2018-08-15 03:37:33pm", "schedule_type": "STATIC", "schedule_name": "random_17", "is_biased_choice":false,"side_choice": "LEFT", "trial_number":89,"observed_reward":0,"unobserved_reward":0},{"RT":2400,"time": "2018-08-15 03:37:36pm", "schedule_type": "STATIC", "schedule_name": "random_17", "is_biased_choice":false,"side_choice": "LEFT", "trial_number":90,"observed_reward":0,"unobserved_reward":0},{"RT":2367,"time": "2018-08-15 03:37:38pm", "schedule_type": "STATIC", "schedule_name": "random_17", "is_biased_choice":false,"side_choice": "LEFT", "trial_number":91,"observed_reward":0,"unobserved_reward":0},{"RT":2450,"time": "2018-08-15 03:37:41pm", "schedule_type": "STATIC", "schedule_name": "random_17", "is_biased_choice":true,"side_choice": "RIGHT", "trial_number":92,"observed_reward":0,"unobserved_reward":0},{"RT":2373,"time": "2018-08-15 03:37:43pm", "schedule_type": "STATIC", "schedule_name": "random_17", "is_biased_choice":true,"side_choice": "RIGHT", "trial_number":93,"observed_reward":1,"unobserved_reward":0},{"RT":2477,"time": "2018-08-15 03:37:45pm", "schedule_type": "STATIC", "schedule_name": "random_17", "is_biased_choice":true,"side_choice": "RIGHT", "trial_number":94,"observed_reward":0,"unobserved_reward":0},{"RT":2433,"time": "2018-08-15 03:37:48pm", "schedule_type": "STATIC", "schedule_name": "random_17", "is_biased_choice":false,"side_choice": "LEFT", "trial_number":95,"observed_reward":0,"unobserved_reward":0},{"RT":2465,"time": "2018-08-15 03:37:50pm", "schedule_type": "STATIC", "schedule_name": "random_17", "is_biased_choice":false,"side_choice": "LEFT", "trial_number":96,"observed_reward":0,"unobserved_reward":0},{"RT":2516,"time": "2018-08-15 03:37:53pm", "schedule_type": "STATIC", "schedule_name": "random_17", "is_biased_choice":true,"side_choice": "RIGHT", "trial_number":97,"observed_reward":0,"unobserved_reward":0},{"RT":2400,"time": "2018-08-15 03:37:55pm", "schedule_type": "STATIC", "schedule_name": "random_17", "is_biased_choice":true,"side_choice": "RIGHT", "trial_number":98,"observed_reward":1,"unobserved_reward":1},{"RT":2516,"time": "2018-08-15 03:37:58pm", "schedule_type": "STATIC", "schedule_name": "random_17", "is_biased_choice":true,"side_choice": "RIGHT", "trial_number":99,"observed_reward":1,"unobserved_reward":0},