[{"RT":4200,"time": "2018-08-23 05:04:50pm", "schedule_type": "dynamic", "schedule_name": "1_6_vs_2_6", "is_biased_choice":true,"side_choice": "LEFT", "trial_number":0,"observed_reward":1,"unobserved_reward":0},{"RT":3583,"time": "2018-08-23 05:04:54pm", "schedule_type": "dynamic", "schedule_name": "1_6_vs_2_6", "is_biased_choice":true,"side_choice": "LEFT", "trial_number":1,"observed_reward":0,"unobserved_reward":1},{"RT":3295,"time": "2018-08-23 05:04:57pm", "schedule_type": "dynamic", "schedule_name": "1_6_vs_2_6", "is_biased_choice":true,"side_choice": "LEFT", "trial_number":2,"observed_reward":0,"unobserved_reward":0},{"RT":2553,"time": "2018-08-23 05:05:00pm", "schedule_type": "dynamic", "schedule_name": "1_6_vs_2_6", "is_biased_choice":false,"side_choice": "RIGHT", "trial_number":3,"observed_reward":0,"unobserved_reward":1},{"RT":3063,"time": "2018-08-23 05:05:03pm", "schedule_type": "dynamic", "schedule_name": "1_6_vs_2_6", "is_biased_choice":true,"side_choice": "LEFT", "trial_number":4,"observed_reward":0,"unobserved_reward":0},{"RT":2408,"time": "2018-08-23 05:05:05pm", "schedule_type": "dynamic", "schedule_name": "1_6_vs_2_6", "is_biased_choice":true,"side_choice": "LEFT", "trial_number":5,"observed_reward":1,"unobserved_reward":0},{"RT":2280,"time": "2018-08-23 05:05:08pm", "schedule_type": "dynamic", "schedule_name": "1_6_vs_2_6", "is_biased_choice":true,"side_choice": "LEFT", "trial_number":6,"observed_reward":1,"unobserved_reward":0},{"RT":2209,"time": "2018-08-23 05:05:10pm", "schedule_type": "dynamic", "schedule_name": "1_6_vs_2_6", "is_biased_choice":true,"side_choice": "LEFT", "trial_number":7,"observed_reward":0,"unobserved_reward":0},{"RT":2208,"time": "2018-08-23 05:05:12pm", "schedule_type": "dynamic", "schedule_name": "1_6_vs_2_6", "is_biased_choice":true,"side_choice": "LEFT", "trial_number":8,"observed_reward":1,"unobserved_reward":0},{"RT":2576,"time": "2018-08-23 05:05:14pm", "schedule_type": "dynamic", "schedule_name": "1_6_vs_2_6", "is_biased_choice":true,"side_choice": "LEFT", "trial_number":9,"observed_reward":0,"unobserved_reward":1},{"RT":2336,"time": "2018-08-23 05:05:17pm", "schedule_type": "dynamic", "schedule_name": "1_6_vs_2_6", "is_biased_choice":true,"side_choice": "LEFT", "trial_number":10,"observed_reward":1,"unobserved_reward":0},{"RT":2199,"time": "2018-08-23 05:05:19pm", "schedule_type": "dynamic", "schedule_name": "1_6_vs_2_6", "is_biased_choice":true,"side_choice": "LEFT", "trial_number":11,"observed_reward":1,"unobserved_reward":0},{"RT":2151,"time": "2018-08-23 05:05:21pm", "schedule_type": "dynamic", "schedule_name": "1_6_vs_2_6", "is_biased_choice":true,"side_choice": "LEFT", "trial_number":12,"observed_reward":0,"unobserved_reward":0},{"RT":2193,"time": "2018-08-23 05:05:23pm", "schedule_type": "dynamic", "schedule_name": "1_6_vs_2_6", "is_biased_choice":true,"side_choice": "LEFT", "trial_number":13,"observed_reward":0,"unobserved_reward":0},{"RT":2144,"time": "2018-08-23 05:05:26pm", "schedule_type": "dynamic", "schedule_name": "1_6_vs_2_6", "is_biased_choice":true,"side_choice": "LEFT", "trial_number":14,"observed_reward":0,"unobserved_reward":0},{"RT":2144,"time": "2018-08-23 05:05:28pm", "schedule_type": "dynamic", "schedule_name": "1_6_vs_2_6", "is_biased_choice":true,"side_choice": "LEFT", "trial_number":15,"observed_reward":1,"unobserved_reward":0},{"RT":2223,"time": "2018-08-23 05:05:30pm", "schedule_type": "dynamic", "schedule_name": "1_6_vs_2_6", "is_biased_choice":true,"side_choice": "LEFT", "trial_number":16,"observed_reward":1,"unobserved_reward":1},{"RT":2048,"time": "2018-08-23 05:05:32pm", "schedule_type": "dynamic", "schedule_name": "1_6_vs_2_6", "is_biased_choice":true,"side_choice": "LEFT", "trial_number":17,"observed_reward":0,"unobserved_reward":0},{"RT":2409,"time": "2018-08-23 05:05:34pm", "schedule_type": "dynamic", "schedule_name": "1_6_vs_2_6", "is_biased_choice":true,"side_choice": "LEFT", "trial_number":18,"observed_reward":0,"unobserved_reward":0},{"RT":2088,"time": "2018-08-23 05:05:36pm", "schedule_type": "dynamic", "schedule_name": "1_6_vs_2_6", "is_biased_choice":true,"side_choice": "LEFT", "trial_number":19,"observed_reward":0,"unobserved_reward":1},{"RT":2095,"time": "2018-08-23 05:05:39pm", "schedule_type": "dynamic", "schedule_name": "1_6_vs_2_6", "is_biased_choice":true,"side_choice": "LEFT", "trial_number":20,"observed_reward":1,"unobserved_reward":0},{"RT":2113,"time": "2018-08-23 05:05:41pm", "schedule_type": "dynamic", "schedule_name": "1_6_vs_2_6", "is_biased_choice":true,"side_choice": "LEFT", "trial_number":21,"observed_reward":1,"unobserved_reward":1},{"RT":2160,"time": "2018-08-23 05:05:43pm", "schedule_type": "dynamic", "schedule_name": "1_6_vs_2_6", "is_biased_choice":true,"side_choice": "LEFT", "trial_number":22,"observed_reward":0,"unobserved_reward":0},{"RT":2103,"time": "2018-08-23 05:05:45pm", "schedule_type": "dynamic", "schedule_name": "1_6_vs_2_6", "is_biased_choice":true,"side_choice": "LEFT", "trial_number":23,"observed_reward":0,"unobserved_reward":0},{"RT":2097,"time": "2018-08-23 05:05:47pm", "schedule_type": "dynamic", "schedule_name": "1_6_vs_2_6", "is_biased_choice":true,"side_choice": "LEFT", "trial_number":24,"observed_reward":1,"unobserved_reward":0},{"RT":2120,"time": "2018-08-23 05:05:49pm", "schedule_type": "dynamic", "schedule_name": "1_6_vs_2_6", "is_biased_choice":true,"side_choice": "LEFT", "trial_number":25,"observed_reward":0,"unobserved_reward":0},{"RT":2103,"time": "2018-08-23 05:05:51pm", "schedule_type": "dynamic", "schedule_name": "1_6_vs_2_6", "is_biased_choice":true,"side_choice": "LEFT", "trial_number":26,"observed_reward":0,"unobserved_reward":0},{"RT":2097,"time": "2018-08-23 05:05:53pm", "schedule_type": "dynamic", "schedule_name": "1_6_vs_2_6", "is_biased_choice":true,"side_choice": "LEFT", "trial_number":27,"observed_reward":0,"unobserved_reward":0},{"RT":2056,"time": "2018-08-23 05:05:55pm", "schedule_type": "dynamic", "schedule_name": "1_6_vs_2_6", "is_biased_choice":true,"side_choice": "LEFT", "trial_number":28,"observed_reward":0,"unobserved_reward":1},{"RT":2119,"time": "2018-08-23 05:05:57pm", "schedule_type": "dynamic", "schedule_name": "1_6_vs_2_6", "is_biased_choice":true,"side_choice": "LEFT", "trial_number":29,"observed_reward":0,"unobserved_reward":0},{"RT":2056,"time": "2018-08-23 05:06:00pm", "schedule_type": "dynamic", "schedule_name": "1_6_vs_2_6", "is_biased_choice":true,"side_choice": "LEFT", "trial_number":30,"observed_reward":0,"unobserved_reward":0},{"RT":2090,"time": "2018-08-23 05:06:02pm", "schedule_type": "dynamic", "schedule_name": "1_6_vs_2_6", "is_biased_choice":false,"side_choice": "RIGHT", "trial_number":31,"observed_reward":0,"unobserved_reward":1},{"RT":2134,"time": "2018-08-23 05:06:04pm", "schedule_type": "dynamic", "schedule_name": "1_6_vs_2_6", "is_biased_choice":true,"side_choice": "LEFT", "trial_number":32,"observed_reward":0,"unobserved_reward":0},{"RT":2032,"time": "2018-08-23 05:06:06pm", "schedule_type": "dynamic", "schedule_name": "1_6_vs_2_6", "is_biased_choice":true,"side_choice": "LEFT", "trial_number":33,"observed_reward":0,"unobserved_reward":0},{"RT":2369,"time": "2018-08-23 05:06:08pm", "schedule_type": "dynamic", "schedule_name": "1_6_vs_2_6", "is_biased_choice":true,"side_choice": "LEFT", "trial_number":34,"observed_reward":0,"unobserved_reward":0},{"RT":1999,"time": "2018-08-23 05:06:10pm", "schedule_type": "dynamic", "schedule_name": "1_6_vs_2_6", "is_biased_choice":true,"side_choice": "LEFT", "trial_number":35,"observed_reward":0,"unobserved_reward":0},{"RT":2055,"time": "2018-08-23 05:06:12pm", "schedule_type": "dynamic", "schedule_name": "1_6_vs_2_6", "is_biased_choice":true,"side_choice": "LEFT", "trial_number":36,"observed_reward":0,"unobserved_reward":1},{"RT":2192,"time": "2018-08-23 05:06:14pm", "schedule_type": "dynamic", "schedule_name": "1_6_vs_2_6", "is_biased_choice":true,"side_choice": "LEFT", "trial_number":37,"observed_reward":0,"unobserved_reward":0},{"RT":2064,"time": "2018-08-23 05:06:16pm", "schedule_type": "dynamic", "schedule_name": "1_6_vs_2_6", "is_biased_choice":false,"side_choice": "RIGHT", "trial_number":38,"observed_reward":0,"unobserved_reward":0},{"RT":2128,"time": "2018-08-23 05:06:19pm", "schedule_type": "dynamic", "schedule_name": "1_6_vs_2_6", "is_biased_choice":false,"side_choice": "RIGHT", "trial_number":39,"observed_reward":0,"unobserved_reward":0},{"RT":2072,"time": "2018-08-23 05:06:21pm", "schedule_type": "dynamic", "schedule_name": "1_6_vs_2_6", "is_biased_choice":false,"side_choice": "RIGHT", "trial_number":40,"observed_reward":0,"unobserved_reward":0},{"RT":2040,"time": "2018-08-23 05:06:23pm", "schedule_type": "dynamic", "schedule_name": "1_6_vs_2_6", "is_biased_choice":true,"side_choice": "LEFT", "trial_number":41,"observed_reward":1,"unobserved_reward":0},{"RT":2064,"time": "2018-08-23 05:06:25pm", "schedule_type": "dynamic", "schedule_name": "1_6_vs_2_6", "is_biased_choice":true,"side_choice": "LEFT", "trial_number":42,"observed_reward":0,"unobserved_reward":0},{"RT":2000,"time": "2018-08-23 05:06:27pm", "schedule_type": "dynamic", "schedule_name": "1_6_vs_2_6", "is_biased_choice":true,"side_choice": "LEFT", "trial_number":43,"observed_reward":1,"unobserved_reward":0},{"RT":2057,"time": "2018-08-23 05:06:29pm", "schedule_type": "dynamic", "schedule_name": "1_6_vs_2_6", "is_biased_choice":true,"side_choice": "LEFT", "trial_number":44,"observed_reward":0,"unobserved_reward":1},{"RT":2007,"time": "2018-08-23 05:06:31pm", "schedule_type": "dynamic", "schedule_name": "1_6_vs_2_6", "is_biased_choice":true,"side_choice": "LEFT", "trial_number":45,"observed_reward":1,"unobserved_reward":0},{"RT":2007,"time": "2018-08-23 05:06:33pm", "schedule_type": "dynamic", "schedule_name": "1_6_vs_2_6", "is_biased_choice":true,"side_choice": "LEFT", "trial_number":46,"observed_reward":0,"unobserved_reward":0},{"RT":1991,"time": "2018-08-23 05:06:35pm", "schedule_type": "dynamic", "schedule_name": "1_6_vs_2_6", "is_biased_choice":true,"side_choice": "LEFT", "trial_number":47,"observed_reward":1,"unobserved_reward":0},{"RT":2025,"time": "2018-08-23 05:06:37pm", "schedule_type": "dynamic", "schedule_name": "1_6_vs_2_6", "is_biased_choice":false,"side_choice": "RIGHT", "trial_number":48,"observed_reward":0,"unobserved_reward":1},{"RT":2030,"time": "2018-08-23 05:06:39pm", "schedule_type": "dynamic", "schedule_name": "1_6_vs_2_6", "is_biased_choice":true,"side_choice": "LEFT", "trial_number":49,"observed_reward":1,"unobserved_reward":1},{"RT":2298,"time": "2018-08-23 05:06:41pm", "schedule_type": "dynamic", "schedule_name": "1_6_vs_2_6", "is_biased_choice":false,"side_choice": "RIGHT", "trial_number":50,"observed_reward":0,"unobserved_reward":0},{"RT":2054,"time": "2018-08-23 05:06:43pm", "schedule_type": "dynamic", "schedule_name": "1_6_vs_2_6", "is_biased_choice":true,"side_choice": "LEFT", "trial_number":51,"observed_reward":1,"unobserved_reward":0},{"RT":2072,"time": "2018-08-23 05:06:45pm", "schedule_type": "dynamic", "schedule_name": "1_6_vs_2_6", "is_biased_choice":false,"side_choice": "RIGHT", "trial_number":52,"observed_reward":0,"unobserved_reward":0},{"RT":2080,"time": "2018-08-23 05:06:47pm", "schedule_type": "dynamic", "schedule_name": "1_6_vs_2_6", "is_biased_choice":true,"side_choice": "LEFT", "trial_number":53,"observed_reward":0,"unobserved_reward":0},{"RT":2048,"time": "2018-08-23 05:06:49pm", "schedule_type": "dynamic", "schedule_name": "1_6_vs_2_6", "is_biased_choice":true,"side_choice": "LEFT", "trial_number":54,"observed_reward":1,"unobserved_reward":1},{"RT":2608,"time": "2018-08-23 05:06:52pm", "schedule_type": "dynamic", "schedule_name": "1_6_vs_2_6", "is_biased_choice":false,"side_choice": "RIGHT", "trial_number":55,"observed_reward":0,"unobserved_reward":0},{"RT":2024,"time": "2018-08-23 05:06:54pm", "schedule_type": "dynamic", "schedule_name": "1_6_vs_2_6", "is_biased_choice":true,"side_choice": "LEFT", "trial_number":56,"observed_reward":0,"unobserved_reward":0},{"RT":2016,"time": "2018-08-23 05:06:56pm", "schedule_type": "dynamic", "schedule_name": "1_6_vs_2_6", "is_biased_choice":true,"side_choice": "LEFT", "trial_number":57,"observed_reward":0,"unobserved_reward":0},{"RT":2024,"time": "2018-08-23 05:06:58pm", "schedule_type": "dynamic", "schedule_name": "1_6_vs_2_6", "is_biased_choice":false,"side_choice": "RIGHT", "trial_number":58,"observed_reward":0,"unobserved_reward":0},{"RT":2008,"time": "2018-08-23 05:07:00pm", "schedule_type": "dynamic", "schedule_name": "1_6_vs_2_6", "is_biased_choice":true,"side_choice": "LEFT", "trial_number":59,"observed_reward":0,"unobserved_reward":0},{"RT":2007,"time": "2018-08-23 05:07:02pm", "schedule_type": "dynamic", "schedule_name": "1_6_vs_2_6", "is_biased_choice":false,"side_choice": "RIGHT", "trial_number":60,"observed_reward":0,"unobserved_reward":1},{"RT":2273,"time": "2018-08-23 05:07:04pm", "schedule_type": "dynamic", "schedule_name": "1_6_vs_2_6", "is_biased_choice":false,"side_choice": "RIGHT", "trial_number":61,"observed_reward":0,"unobserved_reward":1},{"RT":2007,"time": "2018-08-23 05:07:06pm", "schedule_type": "dynamic", "schedule_name": "1_6_vs_2_6", "is_biased_choice":true,"side_choice": "LEFT", "trial_number":62,"observed_reward":0,"unobserved_reward":0},{"RT":2000,"time": "2018-08-23 05:07:08pm", "schedule_type": "dynamic", "schedule_name": "1_6_vs_2_6", "is_biased_choice":true,"side_choice": "LEFT", "trial_number":63,"observed_reward":0,"unobserved_reward":0},{"RT":1984,"time": "2018-08-23 05:07:10pm", "schedule_type": "dynamic", "schedule_name": "1_6_vs_2_6", "is_biased_choice":true,"side_choice": "LEFT", "trial_number":64,"observed_reward":0,"unobserved_reward":0},{"RT":2056,"time": "2018-08-23 05:07:12pm", "schedule_type": "dynamic", "schedule_name": "1_6_vs_2_6", "is_biased_choice":false,"side_choice": "RIGHT", "trial_number":65,"observed_reward":0,"unobserved_reward":1},{"RT":1976,"time": "2018-08-23 05:07:14pm", "schedule_type": "dynamic", "schedule_name": "1_6_vs_2_6", "is_biased_choice":true,"side_choice": "LEFT", "trial_number":66,"observed_reward":0,"unobserved_reward":0},{"RT":1959,"time": "2018-08-23 05:07:16pm", "schedule_type": "dynamic", "schedule_name": "1_6_vs_2_6", "is_biased_choice":true,"side_choice": "LEFT", "trial_number":67,"observed_reward":0,"unobserved_reward":0},{"RT":1985,"time": "2018-08-23 05:07:18pm", "schedule_type": "dynamic", "schedule_name": "1_6_vs_2_6", "is_biased_choice":true,"side_choice": "LEFT", "trial_number":68,"observed_reward":0,"unobserved_reward":0},{"RT":1967,"time": "2018-08-23 05:07:20pm", "schedule_type": "dynamic", "schedule_name": "1_6_vs_2_6", "is_biased_choice":true,"side_choice": "LEFT", "trial_number":69,"observed_reward":0,"unobserved_reward":0},{"RT":2216,"time": "2018-08-23 05:07:23pm", "schedule_type": "dynamic", "schedule_name": "1_6_vs_2_6", "is_biased_choice":true,"side_choice": "LEFT", "trial_number":70,"observed_reward":1,"unobserved_reward":0},{"RT":2120,"time": "2018-08-23 05:07:25pm", "schedule_type": "dynamic", "schedule_name": "1_6_vs_2_6", "is_biased_choice":true,"side_choice": "LEFT", "trial_number":71,"observed_reward":0,"unobserved_reward":0},{"RT":2129,"time": "2018-08-23 05:07:27pm", "schedule_type": "dynamic", "schedule_name": "1_6_vs_2_6", "is_biased_choice":true,"side_choice": "LEFT", "trial_number":72,"observed_reward":0,"unobserved_reward":0},{"RT":2031,"time": "2018-08-23 05:07:29pm", "schedule_type": "dynamic", "schedule_name": "1_6_vs_2_6", "is_biased_choice":true,"side_choice": "LEFT", "trial_number":73,"observed_reward":0,"unobserved_reward":0},{"RT":2065,"time": "2018-08-23 05:07:31pm", "schedule_type": "dynamic", "schedule_name": "1_6_vs_2_6", "is_biased_choice":true,"side_choice": "LEFT", "trial_number":74,"observed_reward":0,"unobserved_reward":0},{"RT":2665,"time": "2018-08-23 05:07:34pm", "schedule_type": "dynamic", "schedule_name": "1_6_vs_2_6", "is_biased_choice":true,"side_choice": "LEFT", "trial_number":75,"observed_reward":0,"unobserved_reward":0},{"RT":2023,"time": "2018-08-23 05:07:36pm", "schedule_type": "dynamic", "schedule_name": "1_6_vs_2_6", "is_biased_choice":false,"side_choice": "RIGHT", "trial_number":76,"observed_reward":1,"unobserved_reward":0},{"RT":2223,"time": "2018-08-23 05:07:38pm", "schedule_type": "dynamic", "schedule_name": "1_6_vs_2_6", "is_biased_choice":false,"side_choice": "RIGHT", "trial_number":77,"observed_reward":0,"unobserved_reward":0},{"RT":2297,"time": "2018-08-23 05:07:40pm", "schedule_type": "dynamic", "schedule_name": "1_6_vs_2_6", "is_biased_choice":true,"side_choice": "LEFT", "trial_number":78,"observed_reward":0,"unobserved_reward":0},{"RT":1983,"time": "2018-08-23 05:07:42pm", "schedule_type": "dynamic", "schedule_name": "1_6_vs_2_6", "is_biased_choice":true,"side_choice": "LEFT", "trial_number":79,"observed_reward":0,"unobserved_reward":1},{"RT":1992,"time": "2018-08-23 05:07:44pm", "schedule_type": "dynamic", "schedule_name": "1_6_vs_2_6", "is_biased_choice":true,"side_choice": "LEFT", "trial_number":80,"observed_reward":0,"unobserved_reward":0},{"RT":2024,"time": "2018-08-23 05:07:46pm", "schedule_type": "dynamic", "schedule_name": "1_6_vs_2_6", "is_biased_choice":true,"side_choice": "LEFT", "trial_number":81,"observed_reward":0,"unobserved_reward":1},{"RT":1952,"time": "2018-08-23 05:07:48pm", "schedule_type": "dynamic", "schedule_name": "1_6_vs_2_6", "is_biased_choice":true,"side_choice": "LEFT", "trial_number":82,"observed_reward":0,"unobserved_reward":0},{"RT":1984,"time": "2018-08-23 05:07:50pm", "schedule_type": "dynamic", "schedule_name": "1_6_vs_2_6", "is_biased_choice":true,"side_choice": "LEFT", "trial_number":83,"observed_reward":0,"unobserved_reward":0},{"RT":1968,"time": "2018-08-23 05:07:52pm", "schedule_type": "dynamic", "schedule_name": "1_6_vs_2_6", "is_biased_choice":true,"side_choice": "LEFT", "trial_number":84,"observed_reward":0,"unobserved_reward":0},{"RT":1984,"time": "2018-08-23 05:07:54pm", "schedule_type": "dynamic", "schedule_name": "1_6_vs_2_6", "is_biased_choice":true,"side_choice": "LEFT", "trial_number":85,"observed_reward":0,"unobserved_reward":0},{"RT":2049,"time": "2018-08-23 05:07:56pm", "schedule_type": "dynamic", "schedule_name": "1_6_vs_2_6", "is_biased_choice":true,"side_choice": "LEFT", "trial_number":86,"observed_reward":0,"unobserved_reward":0},{"RT":1983,"time": "2018-08-23 05:07:58pm", "schedule_type": "dynamic", "schedule_name": "1_6_vs_2_6", "is_biased_choice":true,"side_choice": "LEFT", "trial_number":87,"observed_reward":0,"unobserved_reward":0},{"RT":2032,"time": "2018-08-23 05:08:00pm", "schedule_type": "dynamic", "schedule_name": "1_6_vs_2_6", "is_biased_choice":true,"side_choice": "LEFT", "trial_number":88,"observed_reward":0,"unobserved_reward":1},{"RT":2264,"time": "2018-08-23 05:08:02pm", "schedule_type": "dynamic", "schedule_name": "1_6_vs_2_6", "is_biased_choice":true,"side_choice": "LEFT", "trial_number":89,"observed_reward":0,"unobserved_reward":1},{"RT":2271,"time": "2018-08-23 05:08:05pm", "schedule_type": "dynamic", "schedule_name": "1_6_vs_2_6", "is_biased_choice":true,"side_choice": "LEFT", "trial_number":90,"observed_reward":0,"unobserved_reward":1},{"RT":2024,"time": "2018-08-23 05:08:07pm", "schedule_type": "dynamic", "schedule_name": "1_6_vs_2_6", "is_biased_choice":true,"side_choice": "LEFT", "trial_number":91,"observed_reward":0,"unobserved_reward":1},{"RT":2096,"time": "2018-08-23 05:08:09pm", "schedule_type": "dynamic", "schedule_name": "1_6_vs_2_6", "is_biased_choice":true,"side_choice": "LEFT", "trial_number":92,"observed_reward":0,"unobserved_reward":1},{"RT":2095,"time": "2018-08-23 05:08:11pm", "schedule_type": "dynamic", "schedule_name": "1_6_vs_2_6", "is_biased_choice":true,"side_choice": "LEFT", "trial_number":93,"observed_reward":0,"unobserved_reward":1},{"RT":2977,"time": "2018-08-23 05:08:14pm", "schedule_type": "dynamic", "schedule_name": "1_6_vs_2_6", "is_biased_choice":true,"side_choice": "LEFT", "trial_number":94,"observed_reward":0,"unobserved_reward":1},{"RT":2047,"time": "2018-08-23 05:08:16pm", "schedule_type": "dynamic", "schedule_name": "1_6_vs_2_6", "is_biased_choice":true,"side_choice": "LEFT", "trial_number":95,"observed_reward":0,"unobserved_reward":1},{"RT":2089,"time": "2018-08-23 05:08:18pm", "schedule_type": "dynamic", "schedule_name": "1_6_vs_2_6", "is_biased_choice":true,"side_choice": "LEFT", "trial_number":96,"observed_reward":0,"unobserved_reward":1},{"RT":2056,"time": "2018-08-23 05:08:20pm", "schedule_type": "dynamic", "schedule_name": "1_6_vs_2_6", "is_biased_choice":true,"side_choice": "LEFT", "trial_number":97,"observed_reward":0,"unobserved_reward":1},{"RT":2367,"time": "2018-08-23 05:08:22pm", "schedule_type": "dynamic", "schedule_name": "1_6_vs_2_6", "is_biased_choice":false,"side_choice": "RIGHT", "trial_number":98,"observed_reward":1,"unobserved_reward":0},{"RT":2008,"time": "2018-08-23 05:08:24pm", "schedule_type": "dynamic", "schedule_name": "1_6_vs_2_6", "is_biased_choice":false,"side_choice": "RIGHT", "trial_number":99,"observed_reward":1,"unobserved_reward":0}]