[{"RT":1758,"time": "2018-08-23 04:49:03pm", "schedule_type": "dynamic", "schedule_name": "1_6_vs_2_6", "is_biased_choice":false,"side_choice": "LEFT", "trial_number":0,"observed_reward":0,"unobserved_reward":1},{"RT":3527,"time": "2018-08-23 04:49:07pm", "schedule_type": "dynamic", "schedule_name": "1_6_vs_2_6", "is_biased_choice":false,"side_choice": "LEFT", "trial_number":1,"observed_reward":0,"unobserved_reward":0},{"RT":2640,"time": "2018-08-23 04:49:09pm", "schedule_type": "dynamic", "schedule_name": "1_6_vs_2_6", "is_biased_choice":false,"side_choice": "LEFT", "trial_number":2,"observed_reward":1,"unobserved_reward":1},{"RT":2744,"time": "2018-08-23 04:49:12pm", "schedule_type": "dynamic", "schedule_name": "1_6_vs_2_6", "is_biased_choice":false,"side_choice": "LEFT", "trial_number":3,"observed_reward":0,"unobserved_reward":0},{"RT":2616,"time": "2018-08-23 04:49:14pm", "schedule_type": "dynamic", "schedule_name": "1_6_vs_2_6", "is_biased_choice":false,"side_choice": "LEFT", "trial_number":4,"observed_reward":0,"unobserved_reward":0},{"RT":2992,"time": "2018-08-23 04:49:17pm", "schedule_type": "dynamic", "schedule_name": "1_6_vs_2_6", "is_biased_choice":false,"side_choice": "LEFT", "trial_number":5,"observed_reward":0,"unobserved_reward":1},{"RT":2680,"time": "2018-08-23 04:49:20pm", "schedule_type": "dynamic", "schedule_name": "1_6_vs_2_6", "is_biased_choice":false,"side_choice": "LEFT", "trial_number":6,"observed_reward":1,"unobserved_reward":1},{"RT":2768,"time": "2018-08-23 04:49:23pm", "schedule_type": "dynamic", "schedule_name": "1_6_vs_2_6", "is_biased_choice":false,"side_choice": "LEFT", "trial_number":7,"observed_reward":0,"unobserved_reward":0},{"RT":2943,"time": "2018-08-23 04:49:26pm", "schedule_type": "dynamic", "schedule_name": "1_6_vs_2_6", "is_biased_choice":false,"side_choice": "LEFT", "trial_number":8,"observed_reward":0,"unobserved_reward":0},{"RT":2720,"time": "2018-08-23 04:49:29pm", "schedule_type": "dynamic", "schedule_name": "1_6_vs_2_6", "is_biased_choice":false,"side_choice": "LEFT", "trial_number":9,"observed_reward":0,"unobserved_reward":1},{"RT":3008,"time": "2018-08-23 04:49:32pm", "schedule_type": "dynamic", "schedule_name": "1_6_vs_2_6", "is_biased_choice":false,"side_choice": "LEFT", "trial_number":10,"observed_reward":0,"unobserved_reward":0},{"RT":2905,"time": "2018-08-23 04:49:34pm", "schedule_type": "dynamic", "schedule_name": "1_6_vs_2_6", "is_biased_choice":false,"side_choice": "LEFT", "trial_number":11,"observed_reward":0,"unobserved_reward":1},{"RT":4584,"time": "2018-08-23 04:49:39pm", "schedule_type": "dynamic", "schedule_name": "1_6_vs_2_6", "is_biased_choice":false,"side_choice": "LEFT", "trial_number":12,"observed_reward":0,"unobserved_reward":1},{"RT":3232,"time": "2018-08-23 04:49:42pm", "schedule_type": "dynamic", "schedule_name": "1_6_vs_2_6", "is_biased_choice":false,"side_choice": "LEFT", "trial_number":13,"observed_reward":1,"unobserved_reward":0},{"RT":6559,"time": "2018-08-23 04:49:49pm", "schedule_type": "dynamic", "schedule_name": "1_6_vs_2_6", "is_biased_choice":false,"side_choice": "LEFT", "trial_number":14,"observed_reward":0,"unobserved_reward":0},{"RT":2816,"time": "2018-08-23 04:49:52pm", "schedule_type": "dynamic", "schedule_name": "1_6_vs_2_6", "is_biased_choice":false,"side_choice": "LEFT", "trial_number":15,"observed_reward":0,"unobserved_reward":1},{"RT":2610,"time": "2018-08-23 04:49:54pm", "schedule_type": "dynamic", "schedule_name": "1_6_vs_2_6", "is_biased_choice":true,"side_choice": "RIGHT", "trial_number":16,"observed_reward":0,"unobserved_reward":0},{"RT":2879,"time": "2018-08-23 04:49:57pm", "schedule_type": "dynamic", "schedule_name": "1_6_vs_2_6", "is_biased_choice":true,"side_choice": "RIGHT", "trial_number":17,"observed_reward":1,"unobserved_reward":0},{"RT":2712,"time": "2018-08-23 04:50:00pm", "schedule_type": "dynamic", "schedule_name": "1_6_vs_2_6", "is_biased_choice":true,"side_choice": "RIGHT", "trial_number":18,"observed_reward":0,"unobserved_reward":0},{"RT":2776,"time": "2018-08-23 04:50:03pm", "schedule_type": "dynamic", "schedule_name": "1_6_vs_2_6", "is_biased_choice":true,"side_choice": "RIGHT", "trial_number":19,"observed_reward":1,"unobserved_reward":0},{"RT":2832,"time": "2018-08-23 04:50:05pm", "schedule_type": "dynamic", "schedule_name": "1_6_vs_2_6", "is_biased_choice":true,"side_choice": "RIGHT", "trial_number":20,"observed_reward":0,"unobserved_reward":0},{"RT":2568,"time": "2018-08-23 04:50:08pm", "schedule_type": "dynamic", "schedule_name": "1_6_vs_2_6", "is_biased_choice":false,"side_choice": "LEFT", "trial_number":21,"observed_reward":0,"unobserved_reward":1},{"RT":2784,"time": "2018-08-23 04:50:11pm", "schedule_type": "dynamic", "schedule_name": "1_6_vs_2_6", "is_biased_choice":false,"side_choice": "LEFT", "trial_number":22,"observed_reward":0,"unobserved_reward":1},{"RT":2680,"time": "2018-08-23 04:50:13pm", "schedule_type": "dynamic", "schedule_name": "1_6_vs_2_6", "is_biased_choice":true,"side_choice": "RIGHT", "trial_number":23,"observed_reward":0,"unobserved_reward":0},{"RT":2856,"time": "2018-08-23 04:50:16pm", "schedule_type": "dynamic", "schedule_name": "1_6_vs_2_6", "is_biased_choice":false,"side_choice": "LEFT", "trial_number":24,"observed_reward":0,"unobserved_reward":0},{"RT":2752,"time": "2018-08-23 04:50:19pm", "schedule_type": "dynamic", "schedule_name": "1_6_vs_2_6", "is_biased_choice":false,"side_choice": "LEFT", "trial_number":25,"observed_reward":0,"unobserved_reward":1},{"RT":3815,"time": "2018-08-23 04:50:23pm", "schedule_type": "dynamic", "schedule_name": "1_6_vs_2_6", "is_biased_choice":true,"side_choice": "RIGHT", "trial_number":26,"observed_reward":0,"unobserved_reward":0},{"RT":2561,"time": "2018-08-23 04:50:25pm", "schedule_type": "dynamic", "schedule_name": "1_6_vs_2_6", "is_biased_choice":false,"side_choice": "LEFT", "trial_number":27,"observed_reward":0,"unobserved_reward":0},{"RT":4575,"time": "2018-08-23 04:50:30pm", "schedule_type": "dynamic", "schedule_name": "1_6_vs_2_6", "is_biased_choice":false,"side_choice": "LEFT", "trial_number":28,"observed_reward":0,"unobserved_reward":0},{"RT":2521,"time": "2018-08-23 04:50:33pm", "schedule_type": "dynamic", "schedule_name": "1_6_vs_2_6", "is_biased_choice":false,"side_choice": "LEFT", "trial_number":29,"observed_reward":0,"unobserved_reward":1},{"RT":3416,"time": "2018-08-23 04:50:36pm", "schedule_type": "dynamic", "schedule_name": "1_6_vs_2_6", "is_biased_choice":false,"side_choice": "LEFT", "trial_number":30,"observed_reward":1,"unobserved_reward":0},{"RT":3455,"time": "2018-08-23 04:50:39pm", "schedule_type": "dynamic", "schedule_name": "1_6_vs_2_6", "is_biased_choice":false,"side_choice": "LEFT", "trial_number":31,"observed_reward":0,"unobserved_reward":0},{"RT":2777,"time": "2018-08-23 04:50:42pm", "schedule_type": "dynamic", "schedule_name": "1_6_vs_2_6", "is_biased_choice":false,"side_choice": "LEFT", "trial_number":32,"observed_reward":0,"unobserved_reward":0},{"RT":5159,"time": "2018-08-23 04:50:48pm", "schedule_type": "dynamic", "schedule_name": "1_6_vs_2_6", "is_biased_choice":false,"side_choice": "LEFT", "trial_number":33,"observed_reward":0,"unobserved_reward":1},{"RT":2651,"time": "2018-08-23 04:50:50pm", "schedule_type": "dynamic", "schedule_name": "1_6_vs_2_6", "is_biased_choice":false,"side_choice": "LEFT", "trial_number":34,"observed_reward":0,"unobserved_reward":0},{"RT":2805,"time": "2018-08-23 04:50:53pm", "schedule_type": "dynamic", "schedule_name": "1_6_vs_2_6", "is_biased_choice":false,"side_choice": "LEFT", "trial_number":35,"observed_reward":0,"unobserved_reward":0},{"RT":2769,"time": "2018-08-23 04:50:56pm", "schedule_type": "dynamic", "schedule_name": "1_6_vs_2_6", "is_biased_choice":true,"side_choice": "RIGHT", "trial_number":36,"observed_reward":0,"unobserved_reward":0},{"RT":2584,"time": "2018-08-23 04:50:58pm", "schedule_type": "dynamic", "schedule_name": "1_6_vs_2_6", "is_biased_choice":false,"side_choice": "LEFT", "trial_number":37,"observed_reward":0,"unobserved_reward":0},{"RT":2496,"time": "2018-08-23 04:51:01pm", "schedule_type": "dynamic", "schedule_name": "1_6_vs_2_6", "is_biased_choice":false,"side_choice": "LEFT", "trial_number":38,"observed_reward":0,"unobserved_reward":1},{"RT":2544,"time": "2018-08-23 04:51:03pm", "schedule_type": "dynamic", "schedule_name": "1_6_vs_2_6", "is_biased_choice":false,"side_choice": "LEFT", "trial_number":39,"observed_reward":1,"unobserved_reward":0},{"RT":2712,"time": "2018-08-23 04:51:06pm", "schedule_type": "dynamic", "schedule_name": "1_6_vs_2_6", "is_biased_choice":false,"side_choice": "LEFT", "trial_number":40,"observed_reward":0,"unobserved_reward":0},{"RT":2641,"time": "2018-08-23 04:51:09pm", "schedule_type": "dynamic", "schedule_name": "1_6_vs_2_6", "is_biased_choice":false,"side_choice": "LEFT", "trial_number":41,"observed_reward":0,"unobserved_reward":0},{"RT":2575,"time": "2018-08-23 04:51:11pm", "schedule_type": "dynamic", "schedule_name": "1_6_vs_2_6", "is_biased_choice":false,"side_choice": "LEFT", "trial_number":42,"observed_reward":0,"unobserved_reward":0},{"RT":2928,"time": "2018-08-23 04:51:14pm", "schedule_type": "dynamic", "schedule_name": "1_6_vs_2_6", "is_biased_choice":false,"side_choice": "LEFT", "trial_number":43,"observed_reward":1,"unobserved_reward":0},{"RT":2575,"time": "2018-08-23 04:51:17pm", "schedule_type": "dynamic", "schedule_name": "1_6_vs_2_6", "is_biased_choice":false,"side_choice": "LEFT", "trial_number":44,"observed_reward":1,"unobserved_reward":0},{"RT":2945,"time": "2018-08-23 04:51:20pm", "schedule_type": "dynamic", "schedule_name": "1_6_vs_2_6", "is_biased_choice":false,"side_choice": "LEFT", "trial_number":45,"observed_reward":0,"unobserved_reward":0},{"RT":2895,"time": "2018-08-23 04:51:22pm", "schedule_type": "dynamic", "schedule_name": "1_6_vs_2_6", "is_biased_choice":false,"side_choice": "LEFT", "trial_number":46,"observed_reward":0,"unobserved_reward":1},{"RT":2769,"time": "2018-08-23 04:51:25pm", "schedule_type": "dynamic", "schedule_name": "1_6_vs_2_6", "is_biased_choice":true,"side_choice": "RIGHT", "trial_number":47,"observed_reward":0,"unobserved_reward":1},{"RT":3064,"time": "2018-08-23 04:51:28pm", "schedule_type": "dynamic", "schedule_name": "1_6_vs_2_6", "is_biased_choice":true,"side_choice": "RIGHT", "trial_number":48,"observed_reward":0,"unobserved_reward":0},{"RT":2640,"time": "2018-08-23 04:51:31pm", "schedule_type": "dynamic", "schedule_name": "1_6_vs_2_6", "is_biased_choice":true,"side_choice": "RIGHT", "trial_number":49,"observed_reward":1,"unobserved_reward":0},{"RT":2671,"time": "2018-08-23 04:51:34pm", "schedule_type": "dynamic", "schedule_name": "1_6_vs_2_6", "is_biased_choice":true,"side_choice": "RIGHT", "trial_number":50,"observed_reward":1,"unobserved_reward":0},{"RT":2936,"time": "2018-08-23 04:51:37pm", "schedule_type": "dynamic", "schedule_name": "1_6_vs_2_6", "is_biased_choice":true,"side_choice": "RIGHT", "trial_number":51,"observed_reward":1,"unobserved_reward":0},{"RT":2760,"time": "2018-08-23 04:51:39pm", "schedule_type": "dynamic", "schedule_name": "1_6_vs_2_6", "is_biased_choice":true,"side_choice": "RIGHT", "trial_number":52,"observed_reward":0,"unobserved_reward":0},{"RT":2609,"time": "2018-08-23 04:51:42pm", "schedule_type": "dynamic", "schedule_name": "1_6_vs_2_6", "is_biased_choice":false,"side_choice": "LEFT", "trial_number":53,"observed_reward":1,"unobserved_reward":0},{"RT":2520,"time": "2018-08-23 04:51:44pm", "schedule_type": "dynamic", "schedule_name": "1_6_vs_2_6", "is_biased_choice":false,"side_choice": "LEFT", "trial_number":54,"observed_reward":0,"unobserved_reward":0},{"RT":3008,"time": "2018-08-23 04:51:47pm", "schedule_type": "dynamic", "schedule_name": "1_6_vs_2_6", "is_biased_choice":false,"side_choice": "LEFT", "trial_number":55,"observed_reward":0,"unobserved_reward":0},{"RT":2775,"time": "2018-08-23 04:51:50pm", "schedule_type": "dynamic", "schedule_name": "1_6_vs_2_6", "is_biased_choice":false,"side_choice": "LEFT", "trial_number":56,"observed_reward":0,"unobserved_reward":0},{"RT":2833,"time": "2018-08-23 04:51:53pm", "schedule_type": "dynamic", "schedule_name": "1_6_vs_2_6", "is_biased_choice":true,"side_choice": "RIGHT", "trial_number":57,"observed_reward":0,"unobserved_reward":0},{"RT":2569,"time": "2018-08-23 04:51:56pm", "schedule_type": "dynamic", "schedule_name": "1_6_vs_2_6", "is_biased_choice":true,"side_choice": "RIGHT", "trial_number":58,"observed_reward":0,"unobserved_reward":1},{"RT":2672,"time": "2018-08-23 04:51:58pm", "schedule_type": "dynamic", "schedule_name": "1_6_vs_2_6", "is_biased_choice":true,"side_choice": "RIGHT", "trial_number":59,"observed_reward":0,"unobserved_reward":0},{"RT":2792,"time": "2018-08-23 04:52:01pm", "schedule_type": "dynamic", "schedule_name": "1_6_vs_2_6", "is_biased_choice":false,"side_choice": "LEFT", "trial_number":60,"observed_reward":0,"unobserved_reward":1},{"RT":2856,"time": "2018-08-23 04:52:04pm", "schedule_type": "dynamic", "schedule_name": "1_6_vs_2_6", "is_biased_choice":false,"side_choice": "LEFT", "trial_number":61,"observed_reward":0,"unobserved_reward":0},{"RT":3008,"time": "2018-08-23 04:52:07pm", "schedule_type": "dynamic", "schedule_name": "1_6_vs_2_6", "is_biased_choice":false,"side_choice": "LEFT", "trial_number":62,"observed_reward":0,"unobserved_reward":0},{"RT":2968,"time": "2018-08-23 04:52:10pm", "schedule_type": "dynamic", "schedule_name": "1_6_vs_2_6", "is_biased_choice":false,"side_choice": "LEFT", "trial_number":63,"observed_reward":0,"unobserved_reward":0},{"RT":2951,"time": "2018-08-23 04:52:13pm", "schedule_type": "dynamic", "schedule_name": "1_6_vs_2_6", "is_biased_choice":false,"side_choice": "LEFT", "trial_number":64,"observed_reward":0,"unobserved_reward":1},{"RT":2545,"time": "2018-08-23 04:52:15pm", "schedule_type": "dynamic", "schedule_name": "1_6_vs_2_6", "is_biased_choice":false,"side_choice": "LEFT", "trial_number":65,"observed_reward":0,"unobserved_reward":0},{"RT":2887,"time": "2018-08-23 04:52:18pm", "schedule_type": "dynamic", "schedule_name": "1_6_vs_2_6", "is_biased_choice":false,"side_choice": "LEFT", "trial_number":66,"observed_reward":1,"unobserved_reward":0},{"RT":2961,"time": "2018-08-23 04:52:21pm", "schedule_type": "dynamic", "schedule_name": "1_6_vs_2_6", "is_biased_choice":false,"side_choice": "LEFT", "trial_number":67,"observed_reward":0,"unobserved_reward":0},{"RT":2488,"time": "2018-08-23 04:52:24pm", "schedule_type": "dynamic", "schedule_name": "1_6_vs_2_6", "is_biased_choice":false,"side_choice": "LEFT", "trial_number":68,"observed_reward":0,"unobserved_reward":0},{"RT":2767,"time": "2018-08-23 04:52:27pm", "schedule_type": "dynamic", "schedule_name": "1_6_vs_2_6", "is_biased_choice":false,"side_choice": "LEFT", "trial_number":69,"observed_reward":0,"unobserved_reward":0},{"RT":2576,"time": "2018-08-23 04:52:29pm", "schedule_type": "dynamic", "schedule_name": "1_6_vs_2_6", "is_biased_choice":false,"side_choice": "LEFT", "trial_number":70,"observed_reward":1,"unobserved_reward":1},{"RT":2913,"time": "2018-08-23 04:52:32pm", "schedule_type": "dynamic", "schedule_name": "1_6_vs_2_6", "is_biased_choice":false,"side_choice": "LEFT", "trial_number":71,"observed_reward":0,"unobserved_reward":1},{"RT":2312,"time": "2018-08-23 04:52:34pm", "schedule_type": "dynamic", "schedule_name": "1_6_vs_2_6", "is_biased_choice":false,"side_choice": "LEFT", "trial_number":72,"observed_reward":0,"unobserved_reward":0},{"RT":3327,"time": "2018-08-23 04:52:38pm", "schedule_type": "dynamic", "schedule_name": "1_6_vs_2_6", "is_biased_choice":false,"side_choice": "LEFT", "trial_number":73,"observed_reward":0,"unobserved_reward":0},{"RT":2688,"time": "2018-08-23 04:52:40pm", "schedule_type": "dynamic", "schedule_name": "1_6_vs_2_6", "is_biased_choice":false,"side_choice": "LEFT", "trial_number":74,"observed_reward":0,"unobserved_reward":1},{"RT":2616,"time": "2018-08-23 04:52:43pm", "schedule_type": "dynamic", "schedule_name": "1_6_vs_2_6", "is_biased_choice":true,"side_choice": "RIGHT", "trial_number":75,"observed_reward":0,"unobserved_reward":0},{"RT":2848,"time": "2018-08-23 04:52:46pm", "schedule_type": "dynamic", "schedule_name": "1_6_vs_2_6", "is_biased_choice":false,"side_choice": "LEFT", "trial_number":76,"observed_reward":1,"unobserved_reward":0},{"RT":2744,"time": "2018-08-23 04:52:49pm", "schedule_type": "dynamic", "schedule_name": "1_6_vs_2_6", "is_biased_choice":false,"side_choice": "LEFT", "trial_number":77,"observed_reward":0,"unobserved_reward":0},{"RT":2633,"time": "2018-08-23 04:52:51pm", "schedule_type": "dynamic", "schedule_name": "1_6_vs_2_6", "is_biased_choice":false,"side_choice": "LEFT", "trial_number":78,"observed_reward":0,"unobserved_reward":0},{"RT":2584,"time": "2018-08-23 04:52:54pm", "schedule_type": "dynamic", "schedule_name": "1_6_vs_2_6", "is_biased_choice":false,"side_choice": "LEFT", "trial_number":79,"observed_reward":0,"unobserved_reward":0},{"RT":2480,"time": "2018-08-23 04:52:56pm", "schedule_type": "dynamic", "schedule_name": "1_6_vs_2_6", "is_biased_choice":false,"side_choice": "LEFT", "trial_number":80,"observed_reward":1,"unobserved_reward":0},{"RT":2720,"time": "2018-08-23 04:52:59pm", "schedule_type": "dynamic", "schedule_name": "1_6_vs_2_6", "is_biased_choice":false,"side_choice": "LEFT", "trial_number":81,"observed_reward":0,"unobserved_reward":0},{"RT":2736,"time": "2018-08-23 04:53:02pm", "schedule_type": "dynamic", "schedule_name": "1_6_vs_2_6", "is_biased_choice":true,"side_choice": "RIGHT", "trial_number":82,"observed_reward":0,"unobserved_reward":0},{"RT":2544,"time": "2018-08-23 04:53:04pm", "schedule_type": "dynamic", "schedule_name": "1_6_vs_2_6", "is_biased_choice":true,"side_choice": "RIGHT", "trial_number":83,"observed_reward":0,"unobserved_reward":0},{"RT":2560,"time": "2018-08-23 04:53:07pm", "schedule_type": "dynamic", "schedule_name": "1_6_vs_2_6", "is_biased_choice":false,"side_choice": "LEFT", "trial_number":84,"observed_reward":0,"unobserved_reward":0},{"RT":3384,"time": "2018-08-23 04:53:11pm", "schedule_type": "dynamic", "schedule_name": "1_6_vs_2_6", "is_biased_choice":false,"side_choice": "LEFT", "trial_number":85,"observed_reward":0,"unobserved_reward":0},{"RT":2768,"time": "2018-08-23 04:53:13pm", "schedule_type": "dynamic", "schedule_name": "1_6_vs_2_6", "is_biased_choice":true,"side_choice": "RIGHT", "trial_number":86,"observed_reward":0,"unobserved_reward":1},{"RT":3871,"time": "2018-08-23 04:53:17pm", "schedule_type": "dynamic", "schedule_name": "1_6_vs_2_6", "is_biased_choice":false,"side_choice": "LEFT", "trial_number":87,"observed_reward":0,"unobserved_reward":0},{"RT":3016,"time": "2018-08-23 04:53:20pm", "schedule_type": "dynamic", "schedule_name": "1_6_vs_2_6", "is_biased_choice":false,"side_choice": "LEFT", "trial_number":88,"observed_reward":0,"unobserved_reward":0},{"RT":2353,"time": "2018-08-23 04:53:22pm", "schedule_type": "dynamic", "schedule_name": "1_6_vs_2_6", "is_biased_choice":false,"side_choice": "LEFT", "trial_number":89,"observed_reward":0,"unobserved_reward":0},{"RT":2840,"time": "2018-08-23 04:53:25pm", "schedule_type": "dynamic", "schedule_name": "1_6_vs_2_6", "is_biased_choice":true,"side_choice": "RIGHT", "trial_number":90,"observed_reward":0,"unobserved_reward":1},{"RT":2999,"time": "2018-08-23 04:53:28pm", "schedule_type": "dynamic", "schedule_name": "1_6_vs_2_6", "is_biased_choice":false,"side_choice": "LEFT", "trial_number":91,"observed_reward":1,"unobserved_reward":0},{"RT":2609,"time": "2018-08-23 04:53:31pm", "schedule_type": "dynamic", "schedule_name": "1_6_vs_2_6", "is_biased_choice":false,"side_choice": "LEFT", "trial_number":92,"observed_reward":1,"unobserved_reward":0},{"RT":2927,"time": "2018-08-23 04:53:34pm", "schedule_type": "dynamic", "schedule_name": "1_6_vs_2_6", "is_biased_choice":false,"side_choice": "LEFT", "trial_number":93,"observed_reward":1,"unobserved_reward":0},{"RT":2720,"time": "2018-08-23 04:53:36pm", "schedule_type": "dynamic", "schedule_name": "1_6_vs_2_6", "is_biased_choice":false,"side_choice": "LEFT", "trial_number":94,"observed_reward":1,"unobserved_reward":0},{"RT":2840,"time": "2018-08-23 04:53:39pm", "schedule_type": "dynamic", "schedule_name": "1_6_vs_2_6", "is_biased_choice":false,"side_choice": "LEFT", "trial_number":95,"observed_reward":1,"unobserved_reward":0},{"RT":2544,"time": "2018-08-23 04:53:42pm", "schedule_type": "dynamic", "schedule_name": "1_6_vs_2_6", "is_biased_choice":false,"side_choice": "LEFT", "trial_number":96,"observed_reward":1,"unobserved_reward":0},{"RT":2984,"time": "2018-08-23 04:53:45pm", "schedule_type": "dynamic", "schedule_name": "1_6_vs_2_6", "is_biased_choice":false,"side_choice": "LEFT", "trial_number":97,"observed_reward":1,"unobserved_reward":0},{"RT":2880,"time": "2018-08-23 04:53:48pm", "schedule_type": "dynamic", "schedule_name": "1_6_vs_2_6", "is_biased_choice":false,"side_choice": "LEFT", "trial_number":98,"observed_reward":1,"unobserved_reward":0},