trial_number, time, schedule_type, schedule_name, is_biased_choice, side_choice, RT, observed_reward, unobserved_reward, biased_reward, unbiased_reward
0,2018-08-23 04:46:41pm, dynamic, 1_6_vs_2_6, false, LEFT, 2269, 0, 1, 1, 0
1,2018-08-23 04:46:45pm, dynamic, 1_6_vs_2_6, false, LEFT, 3326, 0, 0, 0, 0
2,2018-08-23 04:46:47pm, dynamic, 1_6_vs_2_6, true, RIGHT, 2496, 0, 1, 0, 1
3,2018-08-23 04:46:50pm, dynamic, 1_6_vs_2_6, true, RIGHT, 2904, 1, 0, 1, 0
4,2018-08-23 04:46:52pm, dynamic, 1_6_vs_2_6, true, RIGHT, 2673, 0, 0, 0, 0
5,2018-08-23 04:46:55pm, dynamic, 1_6_vs_2_6, true, RIGHT, 2120, 0, 0, 0, 0
6,2018-08-23 04:46:57pm, dynamic, 1_6_vs_2_6, false, LEFT, 2303, 1, 0, 0, 1
7,2018-08-23 04:46:59pm, dynamic, 1_6_vs_2_6, false, LEFT, 2616, 0, 1, 1, 0
8,2018-08-23 04:47:02pm, dynamic, 1_6_vs_2_6, false, LEFT, 2348, 0, 0, 0, 0
9,2018-08-23 04:47:05pm, dynamic, 1_6_vs_2_6, false, LEFT, 2404, 0, 0, 0, 0
10,2018-08-23 04:47:07pm, dynamic, 1_6_vs_2_6, true, RIGHT, 2632, 0, 0, 0, 0
11,2018-08-23 04:47:09pm, dynamic, 1_6_vs_2_6, false, LEFT, 2344, 1, 1, 1, 1
12,2018-08-23 04:47:12pm, dynamic, 1_6_vs_2_6, false, LEFT, 2327, 0, 0, 0, 0
13,2018-08-23 04:47:15pm, dynamic, 1_6_vs_2_6, true, RIGHT, 2785, 0, 0, 0, 0
14,2018-08-23 04:47:17pm, dynamic, 1_6_vs_2_6, true, RIGHT, 2511, 0, 0, 0, 0
15,2018-08-23 04:47:19pm, dynamic, 1_6_vs_2_6, false, LEFT, 2297, 0, 0, 0, 0
16,2018-08-23 04:47:22pm, dynamic, 1_6_vs_2_6, true, RIGHT, 2608, 0, 0, 0, 0
17,2018-08-23 04:47:25pm, dynamic, 1_6_vs_2_6, true, RIGHT, 2543, 0, 1, 0, 1
18,2018-08-23 04:47:27pm, dynamic, 1_6_vs_2_6, false, LEFT, 2385, 0, 0, 0, 0
19,2018-08-23 04:47:29pm, dynamic, 1_6_vs_2_6, true, RIGHT, 2329, 0, 0, 0, 0
20,2018-08-23 04:47:31pm, dynamic, 1_6_vs_2_6, true, RIGHT, 2247, 0, 0, 0, 0
21,2018-08-23 04:47:33pm, dynamic, 1_6_vs_2_6, true, RIGHT, 2185, 0, 0, 0, 0
22,2018-08-23 04:47:36pm, dynamic, 1_6_vs_2_6, true, RIGHT, 2368, 0, 0, 0, 0
23,2018-08-23 04:47:38pm, dynamic, 1_6_vs_2_6, false, LEFT, 2495, 0, 1, 1, 0
24,2018-08-23 04:47:41pm, dynamic, 1_6_vs_2_6, true, RIGHT, 2209, 1, 0, 1, 0
25,2018-08-23 04:47:43pm, dynamic, 1_6_vs_2_6, true, RIGHT, 2319, 0, 0, 0, 0
26,2018-08-23 04:47:45pm, dynamic, 1_6_vs_2_6, false, LEFT, 2296, 0, 0, 0, 0
27,2018-08-23 04:47:49pm, dynamic, 1_6_vs_2_6, false, LEFT, 4049, 0, 1, 1, 0
28,2018-08-23 04:47:52pm, dynamic, 1_6_vs_2_6, true, RIGHT, 2527, 1, 0, 1, 0
29,2018-08-23 04:47:54pm, dynamic, 1_6_vs_2_6, true, RIGHT, 2384, 0, 0, 0, 0
30,2018-08-23 04:47:56pm, dynamic, 1_6_vs_2_6, false, LEFT, 2312, 1, 0, 0, 1
31,2018-08-23 04:47:59pm, dynamic, 1_6_vs_2_6, false, LEFT, 2416, 0, 0, 0, 0
32,2018-08-23 04:48:02pm, dynamic, 1_6_vs_2_6, true, RIGHT, 2640, 1, 1, 1, 1
33,2018-08-23 04:48:04pm, dynamic, 1_6_vs_2_6, true, RIGHT, 2504, 1, 0, 1, 0
34,2018-08-23 04:48:07pm, dynamic, 1_6_vs_2_6, true, RIGHT, 2546, 0, 0, 0, 0
35,2018-08-23 04:48:09pm, dynamic, 1_6_vs_2_6, false, LEFT, 2277, 0, 0, 0, 0
36,2018-08-23 04:48:11pm, dynamic, 1_6_vs_2_6, true, RIGHT, 2592, 1, 0, 1, 0
37,2018-08-23 04:48:14pm, dynamic, 1_6_vs_2_6, true, RIGHT, 2408, 0, 0, 0, 0
38,2018-08-23 04:48:16pm, dynamic, 1_6_vs_2_6, false, LEFT, 2720, 0, 0, 0, 0
39,2018-08-23 04:48:19pm, dynamic, 1_6_vs_2_6, true, RIGHT, 2633, 0, 0, 0, 0
40,2018-08-23 04:48:22pm, dynamic, 1_6_vs_2_6, true, RIGHT, 2448, 1, 0, 1, 0
41,2018-08-23 04:48:24pm, dynamic, 1_6_vs_2_6, true, RIGHT, 2390, 1, 0, 1, 0
42,2018-08-23 04:48:27pm, dynamic, 1_6_vs_2_6, true, RIGHT, 2833, 0, 0, 0, 0
43,2018-08-23 04:48:29pm, dynamic, 1_6_vs_2_6, false, LEFT, 2370, 0, 0, 0, 0
44,2018-08-23 04:48:31pm, dynamic, 1_6_vs_2_6, true, RIGHT, 2272, 1, 0, 1, 0
45,2018-08-23 04:48:37pm, dynamic, 1_6_vs_2_6, true, RIGHT, 2488, 0, 0, 0, 0
46,2018-08-23 04:48:41pm, dynamic, 1_6_vs_2_6, true, RIGHT, 7087, 0, 1, 0, 1
47,2018-08-23 04:48:44pm, dynamic, 1_6_vs_2_6, true, RIGHT, 2584, 0, 0, 0, 0
48,2018-08-23 04:48:46pm, dynamic, 1_6_vs_2_6, true, RIGHT, 2264, 1, 0, 1, 0
49,2018-08-23 04:48:48pm, dynamic, 1_6_vs_2_6, true, RIGHT, 2351, 0, 0, 0, 0
50,2018-08-23 04:48:51pm, dynamic, 1_6_vs_2_6, true, RIGHT, 2409, 1, 0, 1, 0
51,2018-08-23 04:48:53pm, dynamic, 1_6_vs_2_6, false, LEFT, 2279, 1, 1, 1, 1
52,2018-08-23 04:48:56pm, dynamic, 1_6_vs_2_6, true, RIGHT, 2280, 0, 1, 0, 1
53,2018-08-23 04:48:58pm, dynamic, 1_6_vs_2_6, true, RIGHT, 2568, 0, 0, 0, 0
54,2018-08-23 04:49:00pm, dynamic, 1_6_vs_2_6, false, LEFT, 2224, 0, 0, 0, 0
55,2018-08-23 04:49:03pm, dynamic, 1_6_vs_2_6, true, RIGHT, 2301, 0, 1, 0, 1
56,2018-08-23 04:49:05pm, dynamic, 1_6_vs_2_6, true, RIGHT, 2834, 1, 0, 1, 0
57,2018-08-23 04:49:07pm, dynamic, 1_6_vs_2_6, false, LEFT, 2361, 0, 1, 1, 0
58,2018-08-23 04:49:10pm, dynamic, 1_6_vs_2_6, false, LEFT, 2480, 0, 0, 0, 0
59,2018-08-23 04:49:12pm, dynamic, 1_6_vs_2_6, true, RIGHT, 2383, 0, 0, 0, 0
60,2018-08-23 04:49:15pm, dynamic, 1_6_vs_2_6, true, RIGHT, 2466, 0, 1, 0, 1
61,2018-08-23 04:49:17pm, dynamic, 1_6_vs_2_6, true, RIGHT, 2328, 0, 0, 0, 0
62,2018-08-23 04:49:20pm, dynamic, 1_6_vs_2_6, true, RIGHT, 2606, 1, 0, 1, 0
63,2018-08-23 04:49:22pm, dynamic, 1_6_vs_2_6, true, RIGHT, 2312, 0, 0, 0, 0
64,2018-08-23 04:49:25pm, dynamic, 1_6_vs_2_6, false, LEFT, 2216, 0, 0, 0, 0
65,2018-08-23 04:49:27pm, dynamic, 1_6_vs_2_6, true, RIGHT, 2472, 0, 0, 0, 0
66,2018-08-23 04:49:29pm, dynamic, 1_6_vs_2_6, false, LEFT, 2316, 1, 0, 0, 1
67,2018-08-23 04:49:31pm, dynamic, 1_6_vs_2_6, false, LEFT, 2270, 0, 0, 0, 0
68,2018-08-23 04:49:34pm, dynamic, 1_6_vs_2_6, false, LEFT, 2208, 0, 1, 1, 0
69,2018-08-23 04:49:36pm, dynamic, 1_6_vs_2_6, false, LEFT, 2224, 0, 1, 1, 0
70,2018-08-23 04:49:38pm, dynamic, 1_6_vs_2_6, false, LEFT, 2185, 0, 0, 0, 0
71,2018-08-23 04:49:40pm, dynamic, 1_6_vs_2_6, false, LEFT, 2255, 0, 0, 0, 0
72,2018-08-23 04:49:43pm, dynamic, 1_6_vs_2_6, true, RIGHT, 2360, 1, 0, 1, 0
73,2018-08-23 04:49:45pm, dynamic, 1_6_vs_2_6, true, RIGHT, 2280, 0, 0, 0, 0
74,2018-08-23 04:49:47pm, dynamic, 1_6_vs_2_6, false, LEFT, 2313, 1, 1, 1, 1
75,2018-08-23 04:49:50pm, dynamic, 1_6_vs_2_6, false, LEFT, 2407, 0, 1, 1, 0
76,2018-08-23 04:49:52pm, dynamic, 1_6_vs_2_6, true, RIGHT, 2168, 0, 0, 0, 0
77,2018-08-23 04:49:54pm, dynamic, 1_6_vs_2_6, false, LEFT, 2423, 0, 0, 0, 0
78,2018-08-23 04:49:56pm, dynamic, 1_6_vs_2_6, true, RIGHT, 2329, 0, 0, 0, 0
79,2018-08-23 04:49:59pm, dynamic, 1_6_vs_2_6, true, RIGHT, 2431, 0, 0, 0, 0
80,2018-08-23 04:50:01pm, dynamic, 1_6_vs_2_6, false, LEFT, 2271, 0, 0, 0, 0
81,2018-08-23 04:50:04pm, dynamic, 1_6_vs_2_6, true, RIGHT, 2553, 0, 0, 0, 0
82,2018-08-23 04:50:06pm, dynamic, 1_6_vs_2_6, true, RIGHT, 2176, 0, 0, 0, 0
83,2018-08-23 04:50:08pm, dynamic, 1_6_vs_2_6, true, RIGHT, 2343, 0, 0, 0, 0
84,2018-08-23 04:50:11pm, dynamic, 1_6_vs_2_6, true, RIGHT, 2369, 0, 0, 0, 0
85,2018-08-23 04:50:13pm, dynamic, 1_6_vs_2_6, true, RIGHT, 2209, 0, 0, 0, 0
86,2018-08-23 04:50:16pm, dynamic, 1_6_vs_2_6, false, LEFT, 2687, 1, 0, 0, 1
87,2018-08-23 04:50:19pm, dynamic, 1_6_vs_2_6, false, LEFT, 3694, 0, 0, 0, 0
88,2018-08-23 04:50:24pm, dynamic, 1_6_vs_2_6, true, RIGHT, 4289, 0, 0, 0, 0
89,2018-08-23 04:50:26pm, dynamic, 1_6_vs_2_6, true, RIGHT, 2952, 0, 1, 0, 1
90,2018-08-23 04:50:29pm, dynamic, 1_6_vs_2_6, true, RIGHT, 2377, 0, 1, 0, 1
91,2018-08-23 04:50:31pm, dynamic, 1_6_vs_2_6, true, RIGHT, 2225, 0, 1, 0, 1
92,2018-08-23 04:50:34pm, dynamic, 1_6_vs_2_6, true, RIGHT, 2599, 0, 1, 0, 1
93,2018-08-23 04:50:36pm, dynamic, 1_6_vs_2_6, false, LEFT, 2480, 1, 0, 0, 1
94,2018-08-23 04:50:39pm, dynamic, 1_6_vs_2_6, true, RIGHT, 2567, 0, 1, 0, 1
95,2018-08-23 04:50:41pm, dynamic, 1_6_vs_2_6, false, LEFT, 2289, 1, 0, 0, 1
96,2018-08-23 04:50:44pm, dynamic, 1_6_vs_2_6, false, LEFT, 2584, 1, 0, 0, 1
97,2018-08-23 04:50:47pm, dynamic, 1_6_vs_2_6, false, LEFT, 2896, 1, 0, 0, 1
98,2018-08-23 04:50:49pm, dynamic, 1_6_vs_2_6, false, LEFT, 2791, 1, 0, 0, 1
99,2018-08-23 04:50:52pm, dynamic, 1_6_vs_2_6, false, LEFT, 2640, 1, 0, 0, 1
