trial_number, time, schedule_type, schedule_name, is_biased_choice, side_choice, RT, observed_reward, unobserved_reward, biased_reward, unbiased_reward
0,2018-08-23 04:48:59pm, dynamic, 1_6_vs_2_6, true, LEFT, 5861, 0, 0, 0, 0
1,2018-08-23 04:49:03pm, dynamic, 1_6_vs_2_6, false, RIGHT, 4024, 0, 0, 0, 0
2,2018-08-23 04:49:09pm, dynamic, 1_6_vs_2_6, true, LEFT, 5063, 0, 0, 0, 0
3,2018-08-23 04:49:39pm, dynamic, 1_6_vs_2_6, false, RIGHT, 30511, 0, 1, 1, 0
4,2018-08-23 04:49:42pm, dynamic, 1_6_vs_2_6, false, RIGHT, 3336, 0, 0, 0, 0
5,2018-08-23 04:49:48pm, dynamic, 1_6_vs_2_6, true, LEFT, 5680, 0, 0, 0, 0
6,2018-08-23 04:49:50pm, dynamic, 1_6_vs_2_6, false, RIGHT, 2626, 0, 0, 0, 0
7,2018-08-23 04:49:54pm, dynamic, 1_6_vs_2_6, true, LEFT, 3528, 0, 0, 0, 0
8,2018-08-23 04:49:57pm, dynamic, 1_6_vs_2_6, false, RIGHT, 3095, 0, 0, 0, 0
9,2018-08-23 04:50:01pm, dynamic, 1_6_vs_2_6, true, LEFT, 3248, 0, 0, 0, 0
10,2018-08-23 04:50:03pm, dynamic, 1_6_vs_2_6, true, LEFT, 2616, 0, 0, 0, 0
11,2018-08-23 04:50:05pm, dynamic, 1_6_vs_2_6, true, LEFT, 2312, 0, 1, 0, 1
12,2018-08-23 04:50:08pm, dynamic, 1_6_vs_2_6, false, RIGHT, 2440, 0, 1, 1, 0
13,2018-08-23 04:50:10pm, dynamic, 1_6_vs_2_6, true, LEFT, 2464, 0, 0, 0, 0
14,2018-08-23 04:50:13pm, dynamic, 1_6_vs_2_6, false, RIGHT, 2464, 0, 1, 1, 0
15,2018-08-23 04:50:15pm, dynamic, 1_6_vs_2_6, true, LEFT, 2272, 1, 0, 1, 0
16,2018-08-23 04:50:17pm, dynamic, 1_6_vs_2_6, false, RIGHT, 2472, 0, 0, 0, 0
17,2018-08-23 04:50:20pm, dynamic, 1_6_vs_2_6, true, LEFT, 2264, 0, 0, 0, 0
18,2018-08-23 04:50:22pm, dynamic, 1_6_vs_2_6, true, LEFT, 2376, 0, 0, 0, 0
19,2018-08-23 04:50:24pm, dynamic, 1_6_vs_2_6, false, RIGHT, 2216, 0, 0, 0, 0
20,2018-08-23 04:50:27pm, dynamic, 1_6_vs_2_6, false, RIGHT, 2352, 0, 0, 0, 0
21,2018-08-23 04:50:29pm, dynamic, 1_6_vs_2_6, false, RIGHT, 2303, 1, 0, 0, 1
22,2018-08-23 04:50:31pm, dynamic, 1_6_vs_2_6, false, RIGHT, 2257, 0, 0, 0, 0
23,2018-08-23 04:50:34pm, dynamic, 1_6_vs_2_6, true, LEFT, 2535, 0, 0, 0, 0
24,2018-08-23 04:50:36pm, dynamic, 1_6_vs_2_6, true, LEFT, 2177, 1, 1, 1, 1
25,2018-08-23 04:50:38pm, dynamic, 1_6_vs_2_6, false, RIGHT, 2342, 0, 1, 1, 0
26,2018-08-23 04:50:41pm, dynamic, 1_6_vs_2_6, false, RIGHT, 2377, 0, 0, 0, 0
27,2018-08-23 04:50:45pm, dynamic, 1_6_vs_2_6, true, LEFT, 4442, 0, 0, 0, 0
28,2018-08-23 04:50:49pm, dynamic, 1_6_vs_2_6, false, RIGHT, 3878, 0, 0, 0, 0
29,2018-08-23 04:50:51pm, dynamic, 1_6_vs_2_6, false, RIGHT, 2537, 0, 0, 0, 0
30,2018-08-23 04:50:55pm, dynamic, 1_6_vs_2_6, false, RIGHT, 2945, 0, 0, 0, 0
31,2018-08-23 04:50:57pm, dynamic, 1_6_vs_2_6, true, LEFT, 2455, 0, 1, 0, 1
32,2018-08-23 04:51:02pm, dynamic, 1_6_vs_2_6, false, RIGHT, 5624, 0, 0, 0, 0
33,2018-08-23 04:51:58pm, dynamic, 1_6_vs_2_6, false, RIGHT, 54985, 1, 1, 1, 1
34,2018-08-23 04:52:09pm, dynamic, 1_6_vs_2_6, false, RIGHT, 11407, 0, 1, 1, 0
35,2018-08-23 04:53:54pm, dynamic, 1_6_vs_2_6, false, RIGHT, 105055, 0, 1, 1, 0
36,2018-08-23 04:53:57pm, dynamic, 1_6_vs_2_6, true, LEFT, 2840, 0, 1, 0, 1
37,2018-08-23 04:53:59pm, dynamic, 1_6_vs_2_6, false, RIGHT, 2304, 0, 0, 0, 0
38,2018-08-23 04:54:01pm, dynamic, 1_6_vs_2_6, false, RIGHT, 2136, 0, 1, 1, 0
39,2018-08-23 04:54:06pm, dynamic, 1_6_vs_2_6, false, RIGHT, 4671, 0, 1, 1, 0
40,2018-08-23 04:54:09pm, dynamic, 1_6_vs_2_6, true, LEFT, 2960, 0, 0, 0, 0
41,2018-08-23 04:54:11pm, dynamic, 1_6_vs_2_6, false, RIGHT, 2273, 1, 0, 0, 1
42,2018-08-23 04:54:13pm, dynamic, 1_6_vs_2_6, true, LEFT, 2303, 0, 1, 0, 1
43,2018-08-23 04:54:18pm, dynamic, 1_6_vs_2_6, true, LEFT, 4112, 0, 0, 0, 0
44,2018-08-23 04:54:20pm, dynamic, 1_6_vs_2_6, false, RIGHT, 2328, 0, 1, 1, 0
45,2018-08-23 04:54:23pm, dynamic, 1_6_vs_2_6, true, LEFT, 3440, 1, 0, 1, 0
46,2018-08-23 04:54:30pm, dynamic, 1_6_vs_2_6, false, RIGHT, 6152, 0, 1, 1, 0
47,2018-08-23 04:54:33pm, dynamic, 1_6_vs_2_6, true, LEFT, 3808, 0, 1, 0, 1
48,2018-08-23 04:54:36pm, dynamic, 1_6_vs_2_6, false, RIGHT, 2736, 0, 1, 1, 0
49,2018-08-23 04:54:38pm, dynamic, 1_6_vs_2_6, true, LEFT, 2416, 0, 0, 0, 0
50,2018-08-23 04:54:41pm, dynamic, 1_6_vs_2_6, false, RIGHT, 2431, 0, 0, 0, 0
51,2018-08-23 04:54:43pm, dynamic, 1_6_vs_2_6, true, LEFT, 2257, 1, 0, 1, 0
52,2018-08-23 04:54:46pm, dynamic, 1_6_vs_2_6, false, RIGHT, 2336, 1, 1, 1, 1
53,2018-08-23 04:54:48pm, dynamic, 1_6_vs_2_6, false, RIGHT, 2359, 0, 0, 0, 0
54,2018-08-23 04:54:50pm, dynamic, 1_6_vs_2_6, true, LEFT, 2288, 0, 0, 0, 0
55,2018-08-23 04:54:52pm, dynamic, 1_6_vs_2_6, false, RIGHT, 2232, 0, 0, 0, 0
56,2018-08-23 04:54:55pm, dynamic, 1_6_vs_2_6, true, LEFT, 2594, 1, 1, 1, 1
57,2018-08-23 04:54:58pm, dynamic, 1_6_vs_2_6, true, LEFT, 2704, 0, 0, 0, 0
58,2018-08-23 04:55:02pm, dynamic, 1_6_vs_2_6, true, LEFT, 4711, 0, 0, 0, 0
59,2018-08-23 04:55:18pm, dynamic, 1_6_vs_2_6, false, RIGHT, 15208, 0, 1, 1, 0
60,2018-08-23 04:55:20pm, dynamic, 1_6_vs_2_6, true, LEFT, 2399, 0, 0, 0, 0
61,2018-08-23 04:55:22pm, dynamic, 1_6_vs_2_6, false, RIGHT, 2216, 0, 0, 0, 0
62,2018-08-23 04:55:39pm, dynamic, 1_6_vs_2_6, false, RIGHT, 15304, 1, 0, 0, 1
63,2018-08-23 04:55:40pm, dynamic, 1_6_vs_2_6, true, LEFT, 3040, 1, 0, 1, 0
64,2018-08-23 04:55:48pm, dynamic, 1_6_vs_2_6, true, LEFT, 7696, 0, 0, 0, 0
65,2018-08-23 04:55:51pm, dynamic, 1_6_vs_2_6, false, RIGHT, 2568, 0, 0, 0, 0
66,2018-08-23 04:55:53pm, dynamic, 1_6_vs_2_6, true, LEFT, 2375, 1, 0, 1, 0
67,2018-08-23 04:55:58pm, dynamic, 1_6_vs_2_6, true, LEFT, 5147, 1, 0, 1, 0
68,2018-08-23 04:56:02pm, dynamic, 1_6_vs_2_6, false, RIGHT, 4264, 0, 0, 0, 0
69,2018-08-23 04:56:07pm, dynamic, 1_6_vs_2_6, false, RIGHT, 4023, 0, 1, 1, 0
70,2018-08-23 04:56:09pm, dynamic, 1_6_vs_2_6, true, LEFT, 2824, 0, 1, 0, 1
71,2018-08-23 04:56:13pm, dynamic, 1_6_vs_2_6, false, RIGHT, 3104, 0, 0, 0, 0
72,2018-08-23 04:56:16pm, dynamic, 1_6_vs_2_6, true, LEFT, 3320, 0, 0, 0, 0
73,2018-08-23 04:56:21pm, dynamic, 1_6_vs_2_6, false, RIGHT, 5096, 0, 0, 0, 0
74,2018-08-23 04:56:28pm, dynamic, 1_6_vs_2_6, false, RIGHT, 7287, 0, 1, 1, 0
75,2018-08-23 04:56:31pm, dynamic, 1_6_vs_2_6, true, LEFT, 3136, 1, 0, 1, 0
76,2018-08-23 04:56:37pm, dynamic, 1_6_vs_2_6, false, RIGHT, 5464, 0, 0, 0, 0
77,2018-08-23 04:56:39pm, dynamic, 1_6_vs_2_6, true, LEFT, 2600, 0, 0, 0, 0
78,2018-08-23 04:56:42pm, dynamic, 1_6_vs_2_6, true, LEFT, 2368, 0, 0, 0, 0
79,2018-08-23 04:56:56pm, dynamic, 1_6_vs_2_6, true, LEFT, 14312, 0, 0, 0, 0
80,2018-08-23 04:56:59pm, dynamic, 1_6_vs_2_6, false, RIGHT, 2553, 0, 0, 0, 0
81,2018-08-23 04:57:05pm, dynamic, 1_6_vs_2_6, true, LEFT, 5993, 0, 0, 0, 0
82,2018-08-23 04:57:07pm, dynamic, 1_6_vs_2_6, false, RIGHT, 2455, 0, 0, 0, 0
83,2018-08-23 04:57:47pm, dynamic, 1_6_vs_2_6, false, RIGHT, 39311, 0, 0, 0, 0
84,2018-08-23 04:57:49pm, dynamic, 1_6_vs_2_6, true, LEFT, 3135, 0, 0, 0, 0
85,2018-08-23 04:57:53pm, dynamic, 1_6_vs_2_6, false, RIGHT, 3313, 0, 0, 0, 0
86,2018-08-23 04:57:56pm, dynamic, 1_6_vs_2_6, true, LEFT, 2911, 0, 1, 0, 1
87,2018-08-23 04:58:01pm, dynamic, 1_6_vs_2_6, true, LEFT, 4913, 0, 0, 0, 0
88,2018-08-23 04:58:03pm, dynamic, 1_6_vs_2_6, false, RIGHT, 2432, 1, 0, 0, 1
89,2018-08-23 04:58:11pm, dynamic, 1_6_vs_2_6, false, RIGHT, 7416, 0, 0, 0, 0
90,2018-08-23 04:58:13pm, dynamic, 1_6_vs_2_6, true, LEFT, 2120, 0, 1, 0, 1
91,2018-08-23 04:58:15pm, dynamic, 1_6_vs_2_6, false, RIGHT, 2216, 1, 0, 0, 1
92,2018-08-23 04:58:20pm, dynamic, 1_6_vs_2_6, true, LEFT, 4960, 0, 1, 0, 1
93,2018-08-23 04:58:26pm, dynamic, 1_6_vs_2_6, false, RIGHT, 6416, 1, 0, 0, 1
94,2018-08-23 04:58:36pm, dynamic, 1_6_vs_2_6, false, RIGHT, 9327, 1, 0, 0, 1
95,2018-08-23 04:58:38pm, dynamic, 1_6_vs_2_6, true, LEFT, 2344, 0, 1, 0, 1
96,2018-08-23 04:58:45pm, dynamic, 1_6_vs_2_6, true, LEFT, 6888, 0, 1, 0, 1
97,2018-08-23 04:58:49pm, dynamic, 1_6_vs_2_6, false, RIGHT, 4368, 1, 0, 0, 1
98,2018-08-23 04:58:54pm, dynamic, 1_6_vs_2_6, true, LEFT, 4680, 0, 1, 0, 1
99,2018-08-23 04:58:57pm, dynamic, 1_6_vs_2_6, false, RIGHT, 3313, 1, 0, 0, 1
