[{"RT":1832,"time": "2018-07-29 04:06:52pm", "schedule_type": "STATIC", "schedule_name": "random_3", "is_biased_choice":true,"side_choice": "LEFT", "trial_number":0,"observed_reward":0,"unobserved_reward":1},{"RT":3126,"time": "2018-07-29 04:06:55pm", "schedule_type": "STATIC", "schedule_name": "random_3", "is_biased_choice":false,"side_choice": "RIGHT", "trial_number":1,"observed_reward":0,"unobserved_reward":0},{"RT":2753,"time": "2018-07-29 04:06:58pm", "schedule_type": "STATIC", "schedule_name": "random_3", "is_biased_choice":false,"side_choice": "RIGHT", "trial_number":2,"observed_reward":0,"unobserved_reward":0},{"RT":2416,"time": "2018-07-29 04:07:00pm", "schedule_type": "STATIC", "schedule_name": "random_3", "is_biased_choice":false,"side_choice": "RIGHT", "trial_number":3,"observed_reward":0,"unobserved_reward":0},{"RT":2352,"time": "2018-07-29 04:07:02pm", "schedule_type": "STATIC", "schedule_name": "random_3", "is_biased_choice":true,"side_choice": "LEFT", "trial_number":4,"observed_reward":0,"unobserved_reward":0},{"RT":2376,"time": "2018-07-29 04:07:05pm", "schedule_type": "STATIC", "schedule_name": "random_3", "is_biased_choice":true,"side_choice": "LEFT", "trial_number":5,"observed_reward":0,"unobserved_reward":0},{"RT":2464,"time": "2018-07-29 04:07:07pm", "schedule_type": "STATIC", "schedule_name": "random_3", "is_biased_choice":true,"side_choice": "LEFT", "trial_number":6,"observed_reward":1,"unobserved_reward":1},{"RT":2512,"time": "2018-07-29 04:07:10pm", "schedule_type": "STATIC", "schedule_name": "random_3", "is_biased_choice":true,"side_choice": "LEFT", "trial_number":7,"observed_reward":0,"unobserved_reward":0},{"RT":2472,"time": "2018-07-29 04:07:12pm", "schedule_type": "STATIC", "schedule_name": "random_3", "is_biased_choice":true,"side_choice": "LEFT", "trial_number":8,"observed_reward":0,"unobserved_reward":0},{"RT":2464,"time": "2018-07-29 04:07:15pm", "schedule_type": "STATIC", "schedule_name": "random_3", "is_biased_choice":true,"side_choice": "LEFT", "trial_number":9,"observed_reward":0,"unobserved_reward":0},{"RT":2440,"time": "2018-07-29 04:07:17pm", "schedule_type": "STATIC", "schedule_name": "random_3", "is_biased_choice":false,"side_choice": "RIGHT", "trial_number":10,"observed_reward":1,"unobserved_reward":0},{"RT":2384,"time": "2018-07-29 04:07:19pm", "schedule_type": "STATIC", "schedule_name": "random_3", "is_biased_choice":false,"side_choice": "RIGHT", "trial_number":11,"observed_reward":1,"unobserved_reward":0},{"RT":2407,"time": "2018-07-29 04:07:22pm", "schedule_type": "STATIC", "schedule_name": "random_3", "is_biased_choice":false,"side_choice": "RIGHT", "trial_number":12,"observed_reward":0,"unobserved_reward":1},{"RT":2320,"time": "2018-07-29 04:07:24pm", "schedule_type": "STATIC", "schedule_name": "random_3", "is_biased_choice":false,"side_choice": "RIGHT", "trial_number":13,"observed_reward":0,"unobserved_reward":1},{"RT":2329,"time": "2018-07-29 04:07:27pm", "schedule_type": "STATIC", "schedule_name": "random_3", "is_biased_choice":false,"side_choice": "RIGHT", "trial_number":14,"observed_reward":1,"unobserved_reward":1},{"RT":2351,"time": "2018-07-29 04:07:29pm", "schedule_type": "STATIC", "schedule_name": "random_3", "is_biased_choice":false,"side_choice": "RIGHT", "trial_number":15,"observed_reward":1,"unobserved_reward":0},{"RT":2425,"time": "2018-07-29 04:07:31pm", "schedule_type": "STATIC", "schedule_name": "random_3", "is_biased_choice":false,"side_choice": "RIGHT", "trial_number":16,"observed_reward":0,"unobserved_reward":0},{"RT":2552,"time": "2018-07-29 04:07:34pm", "schedule_type": "STATIC", "schedule_name": "random_3", "is_biased_choice":false,"side_choice": "RIGHT", "trial_number":17,"observed_reward":0,"unobserved_reward":1},{"RT":2520,"time": "2018-07-29 04:07:36pm", "schedule_type": "STATIC", "schedule_name": "random_3", "is_biased_choice":false,"side_choice": "RIGHT", "trial_number":18,"observed_reward":0,"unobserved_reward":1},{"RT":2655,"time": "2018-07-29 04:07:39pm", "schedule_type": "STATIC", "schedule_name": "random_3", "is_biased_choice":false,"side_choice": "RIGHT", "trial_number":19,"observed_reward":0,"unobserved_reward":0},{"RT":3673,"time": "2018-07-29 04:07:43pm", "schedule_type": "STATIC", "schedule_name": "random_3", "is_biased_choice":true,"side_choice": "LEFT", "trial_number":20,"observed_reward":1,"unobserved_reward":0},{"RT":2768,"time": "2018-07-29 04:07:45pm", "schedule_type": "STATIC", "schedule_name": "random_3", "is_biased_choice":true,"side_choice": "LEFT", "trial_number":21,"observed_reward":0,"unobserved_reward":0},{"RT":2369,"time": "2018-07-29 04:07:48pm", "schedule_type": "STATIC", "schedule_name": "random_3", "is_biased_choice":true,"side_choice": "LEFT", "trial_number":22,"observed_reward":0,"unobserved_reward":0},{"RT":2424,"time": "2018-07-29 04:07:50pm", "schedule_type": "STATIC", "schedule_name": "random_3", "is_biased_choice":true,"side_choice": "LEFT", "trial_number":23,"observed_reward":0,"unobserved_reward":0},{"RT":2408,"time": "2018-07-29 04:07:53pm", "schedule_type": "STATIC", "schedule_name": "random_3", "is_biased_choice":true,"side_choice": "LEFT", "trial_number":24,"observed_reward":0,"unobserved_reward":0},{"RT":2568,"time": "2018-07-29 04:07:55pm", "schedule_type": "STATIC", "schedule_name": "random_3", "is_biased_choice":true,"side_choice": "LEFT", "trial_number":25,"observed_reward":0,"unobserved_reward":0},{"RT":2551,"time": "2018-07-29 04:07:58pm", "schedule_type": "STATIC", "schedule_name": "random_3", "is_biased_choice":true,"side_choice": "LEFT", "trial_number":26,"observed_reward":0,"unobserved_reward":0},{"RT":2392,"time": "2018-07-29 04:08:00pm", "schedule_type": "STATIC", "schedule_name": "random_3", "is_biased_choice":false,"side_choice": "RIGHT", "trial_number":27,"observed_reward":0,"unobserved_reward":1},{"RT":2313,"time": "2018-07-29 04:08:03pm", "schedule_type": "STATIC", "schedule_name": "random_3", "is_biased_choice":false,"side_choice": "RIGHT", "trial_number":28,"observed_reward":0,"unobserved_reward":0},{"RT":2408,"time": "2018-07-29 04:08:05pm", "schedule_type": "STATIC", "schedule_name": "random_3", "is_biased_choice":false,"side_choice": "RIGHT", "trial_number":29,"observed_reward":0,"unobserved_reward":0},{"RT":2392,"time": "2018-07-29 04:08:07pm", "schedule_type": "STATIC", "schedule_name": "random_3", "is_biased_choice":false,"side_choice": "RIGHT", "trial_number":30,"observed_reward":0,"unobserved_reward":0},{"RT":2424,"time": "2018-07-29 04:08:10pm", "schedule_type": "STATIC", "schedule_name": "random_3", "is_biased_choice":false,"side_choice": "RIGHT", "trial_number":31,"observed_reward":0,"unobserved_reward":0},{"RT":2383,"time": "2018-07-29 04:08:12pm", "schedule_type": "STATIC", "schedule_name": "random_3", "is_biased_choice":true,"side_choice": "LEFT", "trial_number":32,"observed_reward":0,"unobserved_reward":0},{"RT":2361,"time": "2018-07-29 04:08:14pm", "schedule_type": "STATIC", "schedule_name": "random_3", "is_biased_choice":false,"side_choice": "RIGHT", "trial_number":33,"observed_reward":0,"unobserved_reward":1},{"RT":2312,"time": "2018-07-29 04:08:17pm", "schedule_type": "STATIC", "schedule_name": "random_3", "is_biased_choice":true,"side_choice": "LEFT", "trial_number":34,"observed_reward":0,"unobserved_reward":0},{"RT":2280,"time": "2018-07-29 04:08:19pm", "schedule_type": "STATIC", "schedule_name": "random_3", "is_biased_choice":true,"side_choice": "LEFT", "trial_number":35,"observed_reward":0,"unobserved_reward":0},{"RT":2399,"time": "2018-07-29 04:08:21pm", "schedule_type": "STATIC", "schedule_name": "random_3", "is_biased_choice":true,"side_choice": "LEFT", "trial_number":36,"observed_reward":0,"unobserved_reward":1},{"RT":2514,"time": "2018-07-29 04:08:24pm", "schedule_type": "STATIC", "schedule_name": "random_3", "is_biased_choice":false,"side_choice": "RIGHT", "trial_number":37,"observed_reward":0,"unobserved_reward":0},{"RT":3271,"time": "2018-07-29 04:08:28pm", "schedule_type": "STATIC", "schedule_name": "random_3", "is_biased_choice":false,"side_choice": "RIGHT", "trial_number":38,"observed_reward":0,"unobserved_reward":0},{"RT":3967,"time": "2018-07-29 04:08:31pm", "schedule_type": "STATIC", "schedule_name": "random_3", "is_biased_choice":true,"side_choice": "LEFT", "trial_number":39,"observed_reward":0,"unobserved_reward":0},{"RT":2240,"time": "2018-07-29 04:08:33pm", "schedule_type": "STATIC", "schedule_name": "random_3", "is_biased_choice":true,"side_choice": "LEFT", "trial_number":40,"observed_reward":1,"unobserved_reward":1},{"RT":2329,"time": "2018-07-29 04:08:36pm", "schedule_type": "STATIC", "schedule_name": "random_3", "is_biased_choice":true,"side_choice": "LEFT", "trial_number":41,"observed_reward":0,"unobserved_reward":0},{"RT":2432,"time": "2018-07-29 04:08:38pm", "schedule_type": "STATIC", "schedule_name": "random_3", "is_biased_choice":true,"side_choice": "LEFT", "trial_number":42,"observed_reward":0,"unobserved_reward":1},{"RT":2504,"time": "2018-07-29 04:08:41pm", "schedule_type": "STATIC", "schedule_name": "random_3", "is_biased_choice":true,"side_choice": "LEFT", "trial_number":43,"observed_reward":0,"unobserved_reward":0},{"RT":2640,"time": "2018-07-29 04:08:43pm", "schedule_type": "STATIC", "schedule_name": "random_3", "is_biased_choice":true,"side_choice": "LEFT", "trial_number":44,"observed_reward":0,"unobserved_reward":0},{"RT":2600,"time": "2018-07-29 04:08:46pm", "schedule_type": "STATIC", "schedule_name": "random_3", "is_biased_choice":true,"side_choice": "LEFT", "trial_number":45,"observed_reward":1,"unobserved_reward":1},{"RT":2431,"time": "2018-07-29 04:08:48pm", "schedule_type": "STATIC", "schedule_name": "random_3", "is_biased_choice":true,"side_choice": "LEFT", "trial_number":46,"observed_reward":1,"unobserved_reward":1},{"RT":2528,"time": "2018-07-29 04:08:51pm", "schedule_type": "STATIC", "schedule_name": "random_3", "is_biased_choice":true,"side_choice": "LEFT", "trial_number":47,"observed_reward":0,"unobserved_reward":0},{"RT":2665,"time": "2018-07-29 04:08:54pm", "schedule_type": "STATIC", "schedule_name": "random_3", "is_biased_choice":true,"side_choice": "LEFT", "trial_number":48,"observed_reward":0,"unobserved_reward":0},{"RT":2432,"time": "2018-07-29 04:08:56pm", "schedule_type": "STATIC", "schedule_name": "random_3", "is_biased_choice":false,"side_choice": "RIGHT", "trial_number":49,"observed_reward":0,"unobserved_reward":0},{"RT":2248,"time": "2018-07-29 04:08:58pm", "schedule_type": "STATIC", "schedule_name": "random_3", "is_biased_choice":false,"side_choice": "RIGHT", "trial_number":50,"observed_reward":0,"unobserved_reward":0},{"RT":2280,"time": "2018-07-29 04:09:01pm", "schedule_type": "STATIC", "schedule_name": "random_3", "is_biased_choice":false,"side_choice": "RIGHT", "trial_number":51,"observed_reward":0,"unobserved_reward":1},{"RT":2335,"time": "2018-07-29 04:09:03pm", "schedule_type": "STATIC", "schedule_name": "random_3", "is_biased_choice":true,"side_choice": "LEFT", "trial_number":52,"observed_reward":0,"unobserved_reward":1},{"RT":2873,"time": "2018-07-29 04:09:06pm", "schedule_type": "STATIC", "schedule_name": "random_3", "is_biased_choice":true,"side_choice": "LEFT", "trial_number":53,"observed_reward":0,"unobserved_reward":0},{"RT":2367,"time": "2018-07-29 04:09:08pm", "schedule_type": "STATIC", "schedule_name": "random_3", "is_biased_choice":true,"side_choice": "LEFT", "trial_number":54,"observed_reward":0,"unobserved_reward":1},{"RT":2321,"time": "2018-07-29 04:09:10pm", "schedule_type": "STATIC", "schedule_name": "random_3", "is_biased_choice":false,"side_choice": "RIGHT", "trial_number":55,"observed_reward":0,"unobserved_reward":0},{"RT":2304,"time": "2018-07-29 04:09:13pm", "schedule_type": "STATIC", "schedule_name": "random_3", "is_biased_choice":false,"side_choice": "RIGHT", "trial_number":56,"observed_reward":0,"unobserved_reward":1},{"RT":2344,"time": "2018-07-29 04:09:15pm", "schedule_type": "STATIC", "schedule_name": "random_3", "is_biased_choice":false,"side_choice": "RIGHT", "trial_number":57,"observed_reward":0,"unobserved_reward":0},{"RT":2320,"time": "2018-07-29 04:09:17pm", "schedule_type": "STATIC", "schedule_name": "random_3", "is_biased_choice":false,"side_choice": "RIGHT", "trial_number":58,"observed_reward":1,"unobserved_reward":0},{"RT":2376,"time": "2018-07-29 04:09:20pm", "schedule_type": "STATIC", "schedule_name": "random_3", "is_biased_choice":false,"side_choice": "RIGHT", "trial_number":59,"observed_reward":1,"unobserved_reward":0},{"RT":7272,"time": "2018-07-29 04:09:27pm", "schedule_type": "STATIC", "schedule_name": "random_3", "is_biased_choice":false,"side_choice": "RIGHT", "trial_number":60,"observed_reward":0,"unobserved_reward":0},{"RT":2599,"time": "2018-07-29 04:09:30pm", "schedule_type": "STATIC", "schedule_name": "random_3", "is_biased_choice":false,"side_choice": "RIGHT", "trial_number":61,"observed_reward":0,"unobserved_reward":0},{"RT":2320,"time": "2018-07-29 04:09:32pm", "schedule_type": "STATIC", "schedule_name": "random_3", "is_biased_choice":false,"side_choice": "RIGHT", "trial_number":62,"observed_reward":0,"unobserved_reward":0},{"RT":2272,"time": "2018-07-29 04:09:34pm", "schedule_type": "STATIC", "schedule_name": "random_3", "is_biased_choice":false,"side_choice": "RIGHT", "trial_number":63,"observed_reward":1,"unobserved_reward":1},{"RT":3224,"time": "2018-07-29 04:09:38pm", "schedule_type": "STATIC", "schedule_name": "random_3", "is_biased_choice":false,"side_choice": "RIGHT", "trial_number":64,"observed_reward":0,"unobserved_reward":1},{"RT":2688,"time": "2018-07-29 04:09:40pm", "schedule_type": "STATIC", "schedule_name": "random_3", "is_biased_choice":false,"side_choice": "RIGHT", "trial_number":65,"observed_reward":1,"unobserved_reward":0},{"RT":2360,"time": "2018-07-29 04:09:43pm", "schedule_type": "STATIC", "schedule_name": "random_3", "is_biased_choice":false,"side_choice": "RIGHT", "trial_number":66,"observed_reward":0,"unobserved_reward":0},{"RT":2360,"time": "2018-07-29 04:09:45pm", "schedule_type": "STATIC", "schedule_name": "random_3", "is_biased_choice":false,"side_choice": "RIGHT", "trial_number":67,"observed_reward":0,"unobserved_reward":0},{"RT":2400,"time": "2018-07-29 04:09:47pm", "schedule_type": "STATIC", "schedule_name": "random_3", "is_biased_choice":false,"side_choice": "RIGHT", "trial_number":68,"observed_reward":1,"unobserved_reward":0},{"RT":4016,"time": "2018-07-29 04:09:52pm", "schedule_type": "STATIC", "schedule_name": "random_3", "is_biased_choice":true,"side_choice": "LEFT", "trial_number":69,"observed_reward":0,"unobserved_reward":0},{"RT":2816,"time": "2018-07-29 04:09:54pm", "schedule_type": "STATIC", "schedule_name": "random_3", "is_biased_choice":true,"side_choice": "LEFT", "trial_number":70,"observed_reward":0,"unobserved_reward":0},{"RT":2719,"time": "2018-07-29 04:09:57pm", "schedule_type": "STATIC", "schedule_name": "random_3", "is_biased_choice":true,"side_choice": "LEFT", "trial_number":71,"observed_reward":1,"unobserved_reward":0},{"RT":2529,"time": "2018-07-29 04:09:59pm", "schedule_type": "STATIC", "schedule_name": "random_3", "is_biased_choice":true,"side_choice": "LEFT", "trial_number":72,"observed_reward":0,"unobserved_reward":0},{"RT":2440,"time": "2018-07-29 04:10:02pm", "schedule_type": "STATIC", "schedule_name": "random_3", "is_biased_choice":true,"side_choice": "LEFT", "trial_number":73,"observed_reward":1,"unobserved_reward":0},{"RT":2719,"time": "2018-07-29 04:10:05pm", "schedule_type": "STATIC", "schedule_name": "random_3", "is_biased_choice":true,"side_choice": "LEFT", "trial_number":74,"observed_reward":0,"unobserved_reward":0},{"RT":2729,"time": "2018-07-29 04:10:07pm", "schedule_type": "STATIC", "schedule_name": "random_3", "is_biased_choice":true,"side_choice": "LEFT", "trial_number":75,"observed_reward":1,"unobserved_reward":0},{"RT":2792,"time": "2018-07-29 04:10:10pm", "schedule_type": "STATIC", "schedule_name": "random_3", "is_biased_choice":true,"side_choice": "LEFT", "trial_number":76,"observed_reward":1,"unobserved_reward":0},{"RT":2488,"time": "2018-07-29 04:10:13pm", "schedule_type": "STATIC", "schedule_name": "random_3", "is_biased_choice":true,"side_choice": "LEFT", "trial_number":77,"observed_reward":0,"unobserved_reward":0},{"RT":2719,"time": "2018-07-29 04:10:15pm", "schedule_type": "STATIC", "schedule_name": "random_3", "is_biased_choice":true,"side_choice": "LEFT", "trial_number":78,"observed_reward":0,"unobserved_reward":0},{"RT":2761,"time": "2018-07-29 04:10:18pm", "schedule_type": "STATIC", "schedule_name": "random_3", "is_biased_choice":false,"side_choice": "RIGHT", "trial_number":79,"observed_reward":0,"unobserved_reward":0},{"RT":3008,"time": "2018-07-29 04:10:21pm", "schedule_type": "STATIC", "schedule_name": "random_3", "is_biased_choice":false,"side_choice": "RIGHT", "trial_number":80,"observed_reward":0,"unobserved_reward":0},{"RT":2544,"time": "2018-07-29 04:10:24pm", "schedule_type": "STATIC", "schedule_name": "random_3", "is_biased_choice":true,"side_choice": "LEFT", "trial_number":81,"observed_reward":1,"unobserved_reward":0},{"RT":2432,"time": "2018-07-29 04:10:26pm", "schedule_type": "STATIC", "schedule_name": "random_3", "is_biased_choice":false,"side_choice": "RIGHT", "trial_number":82,"observed_reward":1,"unobserved_reward":0},{"RT":2720,"time": "2018-07-29 04:10:29pm", "schedule_type": "STATIC", "schedule_name": "random_3", "is_biased_choice":true,"side_choice": "LEFT", "trial_number":83,"observed_reward":1,"unobserved_reward":1},{"RT":2361,"time": "2018-07-29 04:10:31pm", "schedule_type": "STATIC", "schedule_name": "random_3", "is_biased_choice":false,"side_choice": "RIGHT", "trial_number":84,"observed_reward":0,"unobserved_reward":0},{"RT":2982,"time": "2018-07-29 04:10:34pm", "schedule_type": "STATIC", "schedule_name": "random_3", "is_biased_choice":false,"side_choice": "RIGHT", "trial_number":85,"observed_reward":0,"unobserved_reward":0},{"RT":2465,"time": "2018-07-29 04:10:37pm", "schedule_type": "STATIC", "schedule_name": "random_3", "is_biased_choice":false,"side_choice": "RIGHT", "trial_number":86,"observed_reward":0,"unobserved_reward":1},{"RT":2424,"time": "2018-07-29 04:10:39pm", "schedule_type": "STATIC", "schedule_name": "random_3", "is_biased_choice":false,"side_choice": "RIGHT", "trial_number":87,"observed_reward":0,"unobserved_reward":0},{"RT":2376,"time": "2018-07-29 04:10:41pm", "schedule_type": "STATIC", "schedule_name": "random_3", "is_biased_choice":true,"side_choice": "LEFT", "trial_number":88,"observed_reward":0,"unobserved_reward":0},{"RT":2417,"time": "2018-07-29 04:10:44pm", "schedule_type": "STATIC", "schedule_name": "random_3", "is_biased_choice":true,"side_choice": "LEFT", "trial_number":89,"observed_reward":0,"unobserved_reward":1},{"RT":2352,"time": "2018-07-29 04:10:46pm", "schedule_type": "STATIC", "schedule_name": "random_3", "is_biased_choice":true,"side_choice": "LEFT", "trial_number":90,"observed_reward":0,"unobserved_reward":1},{"RT":2367,"time": "2018-07-29 04:10:48pm", "schedule_type": "STATIC", "schedule_name": "random_3", "is_biased_choice":true,"side_choice": "LEFT", "trial_number":91,"observed_reward":0,"unobserved_reward":1},{"RT":2328,"time": "2018-07-29 04:10:51pm", "schedule_type": "STATIC", "schedule_name": "random_3", "is_biased_choice":false,"side_choice": "RIGHT", "trial_number":92,"observed_reward":1,"unobserved_reward":0},{"RT":2424,"time": "2018-07-29 04:10:53pm", "schedule_type": "STATIC", "schedule_name": "random_3", "is_biased_choice":false,"side_choice": "RIGHT", "trial_number":93,"observed_reward":1,"unobserved_reward":0},{"RT":2440,"time": "2018-07-29 04:10:56pm", "schedule_type": "STATIC", "schedule_name": "random_3", "is_biased_choice":false,"side_choice": "RIGHT", "trial_number":94,"observed_reward":0,"unobserved_reward":0},{"RT":2344,"time": "2018-07-29 04:10:58pm", "schedule_type": "STATIC", "schedule_name": "random_3", "is_biased_choice":false,"side_choice": "RIGHT", "trial_number":95,"observed_reward":0,"unobserved_reward":0},{"RT":2344,"time": "2018-07-29 04:11:00pm", "schedule_type": "STATIC", "schedule_name": "random_3", "is_biased_choice":true,"side_choice": "LEFT", "trial_number":96,"observed_reward":0,"unobserved_reward":0},{"RT":2376,"time": "2018-07-29 04:11:03pm", "schedule_type": "STATIC", "schedule_name": "random_3", "is_biased_choice":true,"side_choice": "LEFT", "trial_number":97,"observed_reward":0,"unobserved_reward":0},{"RT":2561,"time": "2018-07-29 04:11:05pm", "schedule_type": "STATIC", "schedule_name": "random_3", "is_biased_choice":true,"side_choice": "LEFT", "trial_number":98,"observed_reward":1,"unobserved_reward":0},{"RT":2447,"time": "2018-07-29 04:11:08pm", "schedule_type": "STATIC", "schedule_name": "random_3", "is_biased_choice":true,"side_choice": "LEFT", "trial_number":99,"observed_reward":1,"unobserved_reward":0}]