[{"RT":1086,"time": "2018-08-15 02:30:04pm", "schedule_type": "STATIC", "schedule_name": "random_3", "is_biased_choice":true,"side_choice": "LEFT", "trial_number":0,"observed_reward":0,"unobserved_reward":1},{"RT":2694,"time": "2018-08-15 02:30:06pm", "schedule_type": "STATIC", "schedule_name": "random_3", "is_biased_choice":false,"side_choice": "RIGHT", "trial_number":1,"observed_reward":0,"unobserved_reward":0},{"RT":2368,"time": "2018-08-15 02:30:09pm", "schedule_type": "STATIC", "schedule_name": "random_3", "is_biased_choice":false,"side_choice": "RIGHT", "trial_number":2,"observed_reward":0,"unobserved_reward":0},{"RT":3488,"time": "2018-08-15 02:30:12pm", "schedule_type": "STATIC", "schedule_name": "random_3", "is_biased_choice":true,"side_choice": "LEFT", "trial_number":3,"observed_reward":0,"unobserved_reward":0},{"RT":2678,"time": "2018-08-15 02:30:15pm", "schedule_type": "STATIC", "schedule_name": "random_3", "is_biased_choice":false,"side_choice": "RIGHT", "trial_number":4,"observed_reward":0,"unobserved_reward":0},{"RT":6195,"time": "2018-08-15 02:30:21pm", "schedule_type": "STATIC", "schedule_name": "random_3", "is_biased_choice":false,"side_choice": "RIGHT", "trial_number":5,"observed_reward":0,"unobserved_reward":0},{"RT":8175,"time": "2018-08-15 02:30:29pm", "schedule_type": "STATIC", "schedule_name": "random_3", "is_biased_choice":true,"side_choice": "LEFT", "trial_number":6,"observed_reward":1,"unobserved_reward":1},{"RT":2699,"time": "2018-08-15 02:30:32pm", "schedule_type": "STATIC", "schedule_name": "random_3", "is_biased_choice":true,"side_choice": "LEFT", "trial_number":7,"observed_reward":0,"unobserved_reward":0},{"RT":7471,"time": "2018-08-15 02:30:40pm", "schedule_type": "STATIC", "schedule_name": "random_3", "is_biased_choice":false,"side_choice": "RIGHT", "trial_number":8,"observed_reward":0,"unobserved_reward":0},{"RT":5806,"time": "2018-08-15 02:30:45pm", "schedule_type": "STATIC", "schedule_name": "random_3", "is_biased_choice":true,"side_choice": "LEFT", "trial_number":9,"observed_reward":0,"unobserved_reward":0},{"RT":3000,"time": "2018-08-15 02:30:48pm", "schedule_type": "STATIC", "schedule_name": "random_3", "is_biased_choice":true,"side_choice": "LEFT", "trial_number":10,"observed_reward":0,"unobserved_reward":1},{"RT":4876,"time": "2018-08-15 02:30:53pm", "schedule_type": "STATIC", "schedule_name": "random_3", "is_biased_choice":false,"side_choice": "RIGHT", "trial_number":11,"observed_reward":1,"unobserved_reward":0},{"RT":2781,"time": "2018-08-15 02:30:56pm", "schedule_type": "STATIC", "schedule_name": "random_3", "is_biased_choice":true,"side_choice": "LEFT", "trial_number":12,"observed_reward":1,"unobserved_reward":0},{"RT":3690,"time": "2018-08-15 02:31:00pm", "schedule_type": "STATIC", "schedule_name": "random_3", "is_biased_choice":false,"side_choice": "RIGHT", "trial_number":13,"observed_reward":0,"unobserved_reward":1},{"RT":4405,"time": "2018-08-15 02:31:04pm", "schedule_type": "STATIC", "schedule_name": "random_3", "is_biased_choice":false,"side_choice": "RIGHT", "trial_number":14,"observed_reward":1,"unobserved_reward":1},{"RT":5562,"time": "2018-08-15 02:31:10pm", "schedule_type": "STATIC", "schedule_name": "random_3", "is_biased_choice":true,"side_choice": "LEFT", "trial_number":15,"observed_reward":0,"unobserved_reward":1},{"RT":4745,"time": "2018-08-15 02:31:14pm", "schedule_type": "STATIC", "schedule_name": "random_3", "is_biased_choice":true,"side_choice": "LEFT", "trial_number":16,"observed_reward":0,"unobserved_reward":0},{"RT":11945,"time": "2018-08-15 02:31:26pm", "schedule_type": "STATIC", "schedule_name": "random_3", "is_biased_choice":false,"side_choice": "RIGHT", "trial_number":17,"observed_reward":0,"unobserved_reward":1},{"RT":10332,"time": "2018-08-15 02:31:37pm", "schedule_type": "STATIC", "schedule_name": "random_3", "is_biased_choice":true,"side_choice": "LEFT", "trial_number":18,"observed_reward":1,"unobserved_reward":0},{"RT":4798,"time": "2018-08-15 02:31:41pm", "schedule_type": "STATIC", "schedule_name": "random_3", "is_biased_choice":true,"side_choice": "LEFT", "trial_number":19,"observed_reward":0,"unobserved_reward":0},{"RT":2505,"time": "2018-08-15 02:31:44pm", "schedule_type": "STATIC", "schedule_name": "random_3", "is_biased_choice":false,"side_choice": "RIGHT", "trial_number":20,"observed_reward":0,"unobserved_reward":1},{"RT":5475,"time": "2018-08-15 02:31:49pm", "schedule_type": "STATIC", "schedule_name": "random_3", "is_biased_choice":false,"side_choice": "RIGHT", "trial_number":21,"observed_reward":0,"unobserved_reward":0},{"RT":4254,"time": "2018-08-15 02:31:54pm", "schedule_type": "STATIC", "schedule_name": "random_3", "is_biased_choice":false,"side_choice": "RIGHT", "trial_number":22,"observed_reward":0,"unobserved_reward":0},{"RT":3480,"time": "2018-08-15 02:31:57pm", "schedule_type": "STATIC", "schedule_name": "random_3", "is_biased_choice":false,"side_choice": "RIGHT", "trial_number":23,"observed_reward":0,"unobserved_reward":0},{"RT":6628,"time": "2018-08-15 02:32:04pm", "schedule_type": "STATIC", "schedule_name": "random_3", "is_biased_choice":true,"side_choice": "LEFT", "trial_number":24,"observed_reward":0,"unobserved_reward":0},{"RT":5764,"time": "2018-08-15 02:32:10pm", "schedule_type": "STATIC", "schedule_name": "random_3", "is_biased_choice":true,"side_choice": "LEFT", "trial_number":25,"observed_reward":0,"unobserved_reward":0},{"RT":9181,"time": "2018-08-15 02:32:19pm", "schedule_type": "STATIC", "schedule_name": "random_3", "is_biased_choice":true,"side_choice": "LEFT", "trial_number":26,"observed_reward":0,"unobserved_reward":0},{"RT":4241,"time": "2018-08-15 02:32:23pm", "schedule_type": "STATIC", "schedule_name": "random_3", "is_biased_choice":true,"side_choice": "LEFT", "trial_number":27,"observed_reward":1,"unobserved_reward":0},{"RT":6498,"time": "2018-08-15 02:32:30pm", "schedule_type": "STATIC", "schedule_name": "random_3", "is_biased_choice":false,"side_choice": "RIGHT", "trial_number":28,"observed_reward":0,"unobserved_reward":0},{"RT":3651,"time": "2018-08-15 02:32:33pm", "schedule_type": "STATIC", "schedule_name": "random_3", "is_biased_choice":false,"side_choice": "RIGHT", "trial_number":29,"observed_reward":0,"unobserved_reward":0},{"RT":4484,"time": "2018-08-15 02:32:38pm", "schedule_type": "STATIC", "schedule_name": "random_3", "is_biased_choice":false,"side_choice": "RIGHT", "trial_number":30,"observed_reward":0,"unobserved_reward":0},{"RT":10759,"time": "2018-08-15 02:32:48pm", "schedule_type": "STATIC", "schedule_name": "random_3", "is_biased_choice":false,"side_choice": "RIGHT", "trial_number":31,"observed_reward":0,"unobserved_reward":0},{"RT":4639,"time": "2018-08-15 02:32:53pm", "schedule_type": "STATIC", "schedule_name": "random_3", "is_biased_choice":true,"side_choice": "LEFT", "trial_number":32,"observed_reward":0,"unobserved_reward":0},{"RT":5459,"time": "2018-08-15 02:32:59pm", "schedule_type": "STATIC", "schedule_name": "random_3", "is_biased_choice":true,"side_choice": "LEFT", "trial_number":33,"observed_reward":1,"unobserved_reward":0},{"RT":2765,"time": "2018-08-15 02:33:01pm", "schedule_type": "STATIC", "schedule_name": "random_3", "is_biased_choice":true,"side_choice": "LEFT", "trial_number":34,"observed_reward":0,"unobserved_reward":0},{"RT":8257,"time": "2018-08-15 02:33:10pm", "schedule_type": "STATIC", "schedule_name": "random_3", "is_biased_choice":false,"side_choice": "RIGHT", "trial_number":35,"observed_reward":0,"unobserved_reward":0},{"RT":3865,"time": "2018-08-15 02:33:13pm", "schedule_type": "STATIC", "schedule_name": "random_3", "is_biased_choice":false,"side_choice": "RIGHT", "trial_number":36,"observed_reward":1,"unobserved_reward":0},{"RT":10307,"time": "2018-08-15 02:33:24pm", "schedule_type": "STATIC", "schedule_name": "random_3", "is_biased_choice":false,"side_choice": "RIGHT", "trial_number":37,"observed_reward":0,"unobserved_reward":0},{"RT":10804,"time": "2018-08-15 02:33:35pm", "schedule_type": "STATIC", "schedule_name": "random_3", "is_biased_choice":false,"side_choice": "RIGHT", "trial_number":38,"observed_reward":0,"unobserved_reward":0},{"RT":8372,"time": "2018-08-15 02:33:43pm", "schedule_type": "STATIC", "schedule_name": "random_3", "is_biased_choice":false,"side_choice": "RIGHT", "trial_number":39,"observed_reward":0,"unobserved_reward":0},{"RT":10269,"time": "2018-08-15 02:33:53pm", "schedule_type": "STATIC", "schedule_name": "random_3", "is_biased_choice":true,"side_choice": "LEFT", "trial_number":40,"observed_reward":1,"unobserved_reward":1},{"RT":5317,"time": "2018-08-15 02:33:58pm", "schedule_type": "STATIC", "schedule_name": "random_3", "is_biased_choice":true,"side_choice": "LEFT", "trial_number":41,"observed_reward":0,"unobserved_reward":0},{"RT":8636,"time": "2018-08-15 02:34:07pm", "schedule_type": "STATIC", "schedule_name": "random_3", "is_biased_choice":true,"side_choice": "LEFT", "trial_number":42,"observed_reward":0,"unobserved_reward":1},{"RT":7292,"time": "2018-08-15 02:34:14pm", "schedule_type": "STATIC", "schedule_name": "random_3", "is_biased_choice":false,"side_choice": "RIGHT", "trial_number":43,"observed_reward":0,"unobserved_reward":0},{"RT":6468,"time": "2018-08-15 02:34:21pm", "schedule_type": "STATIC", "schedule_name": "random_3", "is_biased_choice":true,"side_choice": "LEFT", "trial_number":44,"observed_reward":0,"unobserved_reward":0},{"RT":8986,"time": "2018-08-15 02:34:30pm", "schedule_type": "STATIC", "schedule_name": "random_3", "is_biased_choice":false,"side_choice": "RIGHT", "trial_number":45,"observed_reward":1,"unobserved_reward":1},{"RT":4108,"time": "2018-08-15 02:34:34pm", "schedule_type": "STATIC", "schedule_name": "random_3", "is_biased_choice":false,"side_choice": "RIGHT", "trial_number":46,"observed_reward":1,"unobserved_reward":1},{"RT":3500,"time": "2018-08-15 02:34:37pm", "schedule_type": "STATIC", "schedule_name": "random_3", "is_biased_choice":false,"side_choice": "RIGHT", "trial_number":47,"observed_reward":0,"unobserved_reward":0},{"RT":13123,"time": "2018-08-15 02:34:51pm", "schedule_type": "STATIC", "schedule_name": "random_3", "is_biased_choice":false,"side_choice": "RIGHT", "trial_number":48,"observed_reward":0,"unobserved_reward":0},{"RT":4370,"time": "2018-08-15 02:34:55pm", "schedule_type": "STATIC", "schedule_name": "random_3", "is_biased_choice":true,"side_choice": "LEFT", "trial_number":49,"observed_reward":0,"unobserved_reward":0},{"RT":11310,"time": "2018-08-15 02:35:06pm", "schedule_type": "STATIC", "schedule_name": "random_3", "is_biased_choice":true,"side_choice": "LEFT", "trial_number":50,"observed_reward":0,"unobserved_reward":0},{"RT":3518,"time": "2018-08-15 02:35:10pm", "schedule_type": "STATIC", "schedule_name": "random_3", "is_biased_choice":false,"side_choice": "RIGHT", "trial_number":51,"observed_reward":0,"unobserved_reward":1},{"RT":12153,"time": "2018-08-15 02:35:22pm", "schedule_type": "STATIC", "schedule_name": "random_3", "is_biased_choice":true,"side_choice": "LEFT", "trial_number":52,"observed_reward":0,"unobserved_reward":1},{"RT":2601,"time": "2018-08-15 02:35:24pm", "schedule_type": "STATIC", "schedule_name": "random_3", "is_biased_choice":true,"side_choice": "LEFT", "trial_number":53,"observed_reward":0,"unobserved_reward":0},{"RT":3154,"time": "2018-08-15 02:35:28pm", "schedule_type": "STATIC", "schedule_name": "random_3", "is_biased_choice":false,"side_choice": "RIGHT", "trial_number":54,"observed_reward":1,"unobserved_reward":0},{"RT":2834,"time": "2018-08-15 02:35:31pm", "schedule_type": "STATIC", "schedule_name": "random_3", "is_biased_choice":false,"side_choice": "RIGHT", "trial_number":55,"observed_reward":0,"unobserved_reward":0},{"RT":2234,"time": "2018-08-15 02:35:33pm", "schedule_type": "STATIC", "schedule_name": "random_3", "is_biased_choice":false,"side_choice": "RIGHT", "trial_number":56,"observed_reward":0,"unobserved_reward":1},{"RT":2904,"time": "2018-08-15 02:35:36pm", "schedule_type": "STATIC", "schedule_name": "random_3", "is_biased_choice":false,"side_choice": "RIGHT", "trial_number":57,"observed_reward":0,"unobserved_reward":0},{"RT":2522,"time": "2018-08-15 02:35:38pm", "schedule_type": "STATIC", "schedule_name": "random_3", "is_biased_choice":false,"side_choice": "RIGHT", "trial_number":58,"observed_reward":1,"unobserved_reward":0},{"RT":2747,"time": "2018-08-15 02:35:41pm", "schedule_type": "STATIC", "schedule_name": "random_3", "is_biased_choice":true,"side_choice": "LEFT", "trial_number":59,"observed_reward":0,"unobserved_reward":1},{"RT":5012,"time": "2018-08-15 02:35:46pm", "schedule_type": "STATIC", "schedule_name": "random_3", "is_biased_choice":true,"side_choice": "LEFT", "trial_number":60,"observed_reward":0,"unobserved_reward":0},{"RT":2761,"time": "2018-08-15 02:35:49pm", "schedule_type": "STATIC", "schedule_name": "random_3", "is_biased_choice":true,"side_choice": "LEFT", "trial_number":61,"observed_reward":0,"unobserved_reward":0},{"RT":3074,"time": "2018-08-15 02:35:52pm", "schedule_type": "STATIC", "schedule_name": "random_3", "is_biased_choice":false,"side_choice": "RIGHT", "trial_number":62,"observed_reward":0,"unobserved_reward":0},{"RT":3241,"time": "2018-08-15 02:35:55pm", "schedule_type": "STATIC", "schedule_name": "random_3", "is_biased_choice":false,"side_choice": "RIGHT", "trial_number":63,"observed_reward":1,"unobserved_reward":1},{"RT":4030,"time": "2018-08-15 02:35:59pm", "schedule_type": "STATIC", "schedule_name": "random_3", "is_biased_choice":false,"side_choice": "RIGHT", "trial_number":64,"observed_reward":0,"unobserved_reward":1},{"RT":5637,"time": "2018-08-15 02:36:05pm", "schedule_type": "STATIC", "schedule_name": "random_3", "is_biased_choice":true,"side_choice": "LEFT", "trial_number":65,"observed_reward":0,"unobserved_reward":1},{"RT":5211,"time": "2018-08-15 02:36:10pm", "schedule_type": "STATIC", "schedule_name": "random_3", "is_biased_choice":false,"side_choice": "RIGHT", "trial_number":66,"observed_reward":0,"unobserved_reward":0},{"RT":3047,"time": "2018-08-15 02:36:13pm", "schedule_type": "STATIC", "schedule_name": "random_3", "is_biased_choice":true,"side_choice": "LEFT", "trial_number":67,"observed_reward":0,"unobserved_reward":0},{"RT":2653,"time": "2018-08-15 02:36:16pm", "schedule_type": "STATIC", "schedule_name": "random_3", "is_biased_choice":false,"side_choice": "RIGHT", "trial_number":68,"observed_reward":1,"unobserved_reward":0},{"RT":2452,"time": "2018-08-15 02:36:18pm", "schedule_type": "STATIC", "schedule_name": "random_3", "is_biased_choice":false,"side_choice": "RIGHT", "trial_number":69,"observed_reward":0,"unobserved_reward":0},{"RT":2526,"time": "2018-08-15 02:36:21pm", "schedule_type": "STATIC", "schedule_name": "random_3", "is_biased_choice":false,"side_choice": "RIGHT", "trial_number":70,"observed_reward":0,"unobserved_reward":0},{"RT":2892,"time": "2018-08-15 02:36:23pm", "schedule_type": "STATIC", "schedule_name": "random_3", "is_biased_choice":false,"side_choice": "RIGHT", "trial_number":71,"observed_reward":0,"unobserved_reward":1},{"RT":3145,"time": "2018-08-15 02:36:27pm", "schedule_type": "STATIC", "schedule_name": "random_3", "is_biased_choice":true,"side_choice": "LEFT", "trial_number":72,"observed_reward":0,"unobserved_reward":0},{"RT":2493,"time": "2018-08-15 02:36:29pm", "schedule_type": "STATIC", "schedule_name": "random_3", "is_biased_choice":false,"side_choice": "RIGHT", "trial_number":73,"observed_reward":0,"unobserved_reward":1},{"RT":2331,"time": "2018-08-15 02:36:31pm", "schedule_type": "STATIC", "schedule_name": "random_3", "is_biased_choice":false,"side_choice": "RIGHT", "trial_number":74,"observed_reward":0,"unobserved_reward":0},{"RT":2937,"time": "2018-08-15 02:36:34pm", "schedule_type": "STATIC", "schedule_name": "random_3", "is_biased_choice":true,"side_choice": "LEFT", "trial_number":75,"observed_reward":1,"unobserved_reward":0},{"RT":2553,"time": "2018-08-15 02:36:37pm", "schedule_type": "STATIC", "schedule_name": "random_3", "is_biased_choice":false,"side_choice": "RIGHT", "trial_number":76,"observed_reward":0,"unobserved_reward":1},{"RT":3695,"time": "2018-08-15 02:36:41pm", "schedule_type": "STATIC", "schedule_name": "random_3", "is_biased_choice":false,"side_choice": "RIGHT", "trial_number":77,"observed_reward":0,"unobserved_reward":0},{"RT":3046,"time": "2018-08-15 02:36:44pm", "schedule_type": "STATIC", "schedule_name": "random_3", "is_biased_choice":false,"side_choice": "RIGHT", "trial_number":78,"observed_reward":0,"unobserved_reward":0},{"RT":2456,"time": "2018-08-15 02:36:46pm", "schedule_type": "STATIC", "schedule_name": "random_3", "is_biased_choice":false,"side_choice": "RIGHT", "trial_number":79,"observed_reward":0,"unobserved_reward":0},{"RT":2626,"time": "2018-08-15 02:36:49pm", "schedule_type": "STATIC", "schedule_name": "random_3", "is_biased_choice":false,"side_choice": "RIGHT", "trial_number":80,"observed_reward":0,"unobserved_reward":0},{"RT":3906,"time": "2018-08-15 02:36:53pm", "schedule_type": "STATIC", "schedule_name": "random_3", "is_biased_choice":false,"side_choice": "RIGHT", "trial_number":81,"observed_reward":0,"unobserved_reward":1},{"RT":3222,"time": "2018-08-15 02:36:56pm", "schedule_type": "STATIC", "schedule_name": "random_3", "is_biased_choice":false,"side_choice": "RIGHT", "trial_number":82,"observed_reward":1,"unobserved_reward":0},{"RT":2220,"time": "2018-08-15 02:36:58pm", "schedule_type": "STATIC", "schedule_name": "random_3", "is_biased_choice":false,"side_choice": "RIGHT", "trial_number":83,"observed_reward":1,"unobserved_reward":1},{"RT":2296,"time": "2018-08-15 02:37:00pm", "schedule_type": "STATIC", "schedule_name": "random_3", "is_biased_choice":false,"side_choice": "RIGHT", "trial_number":84,"observed_reward":0,"unobserved_reward":0},{"RT":4218,"time": "2018-08-15 02:37:05pm", "schedule_type": "STATIC", "schedule_name": "random_3", "is_biased_choice":false,"side_choice": "RIGHT", "trial_number":85,"observed_reward":0,"unobserved_reward":0},{"RT":3636,"time": "2018-08-15 02:37:08pm", "schedule_type": "STATIC", "schedule_name": "random_3", "is_biased_choice":false,"side_choice": "RIGHT", "trial_number":86,"observed_reward":0,"unobserved_reward":1},{"RT":3192,"time": "2018-08-15 02:37:11pm", "schedule_type": "STATIC", "schedule_name": "random_3", "is_biased_choice":false,"side_choice": "RIGHT", "trial_number":87,"observed_reward":0,"unobserved_reward":0},{"RT":6210,"time": "2018-08-15 02:37:18pm", "schedule_type": "STATIC", "schedule_name": "random_3", "is_biased_choice":false,"side_choice": "RIGHT", "trial_number":88,"observed_reward":0,"unobserved_reward":0},{"RT":3410,"time": "2018-08-15 02:37:21pm", "schedule_type": "STATIC", "schedule_name": "random_3", "is_biased_choice":false,"side_choice": "RIGHT", "trial_number":89,"observed_reward":1,"unobserved_reward":0},{"RT":2916,"time": "2018-08-15 02:37:24pm", "schedule_type": "STATIC", "schedule_name": "random_3", "is_biased_choice":false,"side_choice": "RIGHT", "trial_number":90,"observed_reward":1,"unobserved_reward":0},{"RT":3093,"time": "2018-08-15 02:37:27pm", "schedule_type": "STATIC", "schedule_name": "random_3", "is_biased_choice":false,"side_choice": "RIGHT", "trial_number":91,"observed_reward":1,"unobserved_reward":0},{"RT":4180,"time": "2018-08-15 02:37:31pm", "schedule_type": "STATIC", "schedule_name": "random_3", "is_biased_choice":false,"side_choice": "RIGHT", "trial_number":92,"observed_reward":1,"unobserved_reward":0},{"RT":3706,"time": "2018-08-15 02:37:35pm", "schedule_type": "STATIC", "schedule_name": "random_3", "is_biased_choice":false,"side_choice": "RIGHT", "trial_number":93,"observed_reward":1,"unobserved_reward":0},{"RT":3430,"time": "2018-08-15 02:37:38pm", "schedule_type": "STATIC", "schedule_name": "random_3", "is_biased_choice":false,"side_choice": "RIGHT", "trial_number":94,"observed_reward":0,"unobserved_reward":0},{"RT":3402,"time": "2018-08-15 02:37:42pm", "schedule_type": "STATIC", "schedule_name": "random_3", "is_biased_choice":false,"side_choice": "RIGHT", "trial_number":95,"observed_reward":0,"unobserved_reward":0},{"RT":3735,"time": "2018-08-15 02:37:46pm", "schedule_type": "STATIC", "schedule_name": "random_3", "is_biased_choice":false,"side_choice": "RIGHT", "trial_number":96,"observed_reward":0,"unobserved_reward":0},{"RT":2309,"time": "2018-08-15 02:37:48pm", "schedule_type": "STATIC", "schedule_name": "random_3", "is_biased_choice":false,"side_choice": "RIGHT", "trial_number":97,"observed_reward":0,"unobserved_reward":0},{"RT":2893,"time": "2018-08-15 02:37:51pm", "schedule_type": "STATIC", "schedule_name": "random_3", "is_biased_choice":false,"side_choice": "RIGHT", "trial_number":98,"observed_reward":0,"unobserved_reward":1},