[{"RT":11192,"time": "2018-08-15 03:27:59pm", "schedule_type": "STATIC", "schedule_name": "random_3", "is_biased_choice":true,"side_choice": "RIGHT", "trial_number":0,"observed_reward":0,"unobserved_reward":1},{"RT":4839,"time": "2018-08-15 03:28:04pm", "schedule_type": "STATIC", "schedule_name": "random_3", "is_biased_choice":false,"side_choice": "LEFT", "trial_number":1,"observed_reward":0,"unobserved_reward":0},{"RT":2440,"time": "2018-08-15 03:28:06pm", "schedule_type": "STATIC", "schedule_name": "random_3", "is_biased_choice":true,"side_choice": "RIGHT", "trial_number":2,"observed_reward":0,"unobserved_reward":0},{"RT":2307,"time": "2018-08-15 03:28:08pm", "schedule_type": "STATIC", "schedule_name": "random_3", "is_biased_choice":false,"side_choice": "LEFT", "trial_number":3,"observed_reward":0,"unobserved_reward":0},{"RT":3295,"time": "2018-08-15 03:28:12pm", "schedule_type": "STATIC", "schedule_name": "random_3", "is_biased_choice":false,"side_choice": "LEFT", "trial_number":4,"observed_reward":0,"unobserved_reward":0},{"RT":2736,"time": "2018-08-15 03:28:14pm", "schedule_type": "STATIC", "schedule_name": "random_3", "is_biased_choice":true,"side_choice": "RIGHT", "trial_number":5,"observed_reward":0,"unobserved_reward":0},{"RT":2584,"time": "2018-08-15 03:28:17pm", "schedule_type": "STATIC", "schedule_name": "random_3", "is_biased_choice":false,"side_choice": "LEFT", "trial_number":6,"observed_reward":1,"unobserved_reward":1},{"RT":2488,"time": "2018-08-15 03:28:19pm", "schedule_type": "STATIC", "schedule_name": "random_3", "is_biased_choice":false,"side_choice": "LEFT", "trial_number":7,"observed_reward":0,"unobserved_reward":0},{"RT":2743,"time": "2018-08-15 03:28:22pm", "schedule_type": "STATIC", "schedule_name": "random_3", "is_biased_choice":true,"side_choice": "RIGHT", "trial_number":8,"observed_reward":0,"unobserved_reward":0},{"RT":2592,"time": "2018-08-15 03:28:25pm", "schedule_type": "STATIC", "schedule_name": "random_3", "is_biased_choice":false,"side_choice": "LEFT", "trial_number":9,"observed_reward":0,"unobserved_reward":0},{"RT":2760,"time": "2018-08-15 03:28:28pm", "schedule_type": "STATIC", "schedule_name": "random_3", "is_biased_choice":false,"side_choice": "LEFT", "trial_number":10,"observed_reward":1,"unobserved_reward":0},{"RT":2592,"time": "2018-08-15 03:28:30pm", "schedule_type": "STATIC", "schedule_name": "random_3", "is_biased_choice":false,"side_choice": "LEFT", "trial_number":11,"observed_reward":1,"unobserved_reward":0},{"RT":2200,"time": "2018-08-15 03:28:33pm", "schedule_type": "STATIC", "schedule_name": "random_3", "is_biased_choice":false,"side_choice": "LEFT", "trial_number":12,"observed_reward":0,"unobserved_reward":1},{"RT":2368,"time": "2018-08-15 03:28:35pm", "schedule_type": "STATIC", "schedule_name": "random_3", "is_biased_choice":false,"side_choice": "LEFT", "trial_number":13,"observed_reward":0,"unobserved_reward":1},{"RT":2423,"time": "2018-08-15 03:28:37pm", "schedule_type": "STATIC", "schedule_name": "random_3", "is_biased_choice":true,"side_choice": "RIGHT", "trial_number":14,"observed_reward":1,"unobserved_reward":1},{"RT":2633,"time": "2018-08-15 03:28:40pm", "schedule_type": "STATIC", "schedule_name": "random_3", "is_biased_choice":true,"side_choice": "RIGHT", "trial_number":15,"observed_reward":0,"unobserved_reward":1},{"RT":11534,"time": "2018-08-15 03:28:51pm", "schedule_type": "STATIC", "schedule_name": "random_3", "is_biased_choice":true,"side_choice": "RIGHT", "trial_number":16,"observed_reward":0,"unobserved_reward":0},{"RT":2657,"time": "2018-08-15 03:28:54pm", "schedule_type": "STATIC", "schedule_name": "random_3", "is_biased_choice":false,"side_choice": "LEFT", "trial_number":17,"observed_reward":0,"unobserved_reward":1},{"RT":2512,"time": "2018-08-15 03:28:57pm", "schedule_type": "STATIC", "schedule_name": "random_3", "is_biased_choice":false,"side_choice": "LEFT", "trial_number":18,"observed_reward":0,"unobserved_reward":1},{"RT":2424,"time": "2018-08-15 03:28:59pm", "schedule_type": "STATIC", "schedule_name": "random_3", "is_biased_choice":true,"side_choice": "RIGHT", "trial_number":19,"observed_reward":0,"unobserved_reward":0},{"RT":2328,"time": "2018-08-15 03:29:01pm", "schedule_type": "STATIC", "schedule_name": "random_3", "is_biased_choice":false,"side_choice": "LEFT", "trial_number":20,"observed_reward":0,"unobserved_reward":1},{"RT":2287,"time": "2018-08-15 03:29:03pm", "schedule_type": "STATIC", "schedule_name": "random_3", "is_biased_choice":true,"side_choice": "RIGHT", "trial_number":21,"observed_reward":0,"unobserved_reward":0},{"RT":2305,"time": "2018-08-15 03:29:06pm", "schedule_type": "STATIC", "schedule_name": "random_3", "is_biased_choice":false,"side_choice": "LEFT", "trial_number":22,"observed_reward":0,"unobserved_reward":0},{"RT":2185,"time": "2018-08-15 03:29:08pm", "schedule_type": "STATIC", "schedule_name": "random_3", "is_biased_choice":true,"side_choice": "RIGHT", "trial_number":23,"observed_reward":0,"unobserved_reward":0},{"RT":2296,"time": "2018-08-15 03:29:10pm", "schedule_type": "STATIC", "schedule_name": "random_3", "is_biased_choice":true,"side_choice": "RIGHT", "trial_number":24,"observed_reward":0,"unobserved_reward":0},{"RT":2392,"time": "2018-08-15 03:29:14pm", "schedule_type": "STATIC", "schedule_name": "random_3", "is_biased_choice":true,"side_choice": "RIGHT", "trial_number":25,"observed_reward":0,"unobserved_reward":0},{"RT":2544,"time": "2018-08-15 03:29:16pm", "schedule_type": "STATIC", "schedule_name": "random_3", "is_biased_choice":true,"side_choice": "RIGHT", "trial_number":26,"observed_reward":0,"unobserved_reward":0},{"RT":2376,"time": "2018-08-15 03:29:18pm", "schedule_type": "STATIC", "schedule_name": "random_3", "is_biased_choice":true,"side_choice": "RIGHT", "trial_number":27,"observed_reward":1,"unobserved_reward":0},{"RT":2681,"time": "2018-08-15 03:29:20pm", "schedule_type": "STATIC", "schedule_name": "random_3", "is_biased_choice":true,"side_choice": "RIGHT", "trial_number":28,"observed_reward":0,"unobserved_reward":0},{"RT":2158,"time": "2018-08-15 03:29:22pm", "schedule_type": "STATIC", "schedule_name": "random_3", "is_biased_choice":false,"side_choice": "LEFT", "trial_number":29,"observed_reward":0,"unobserved_reward":0},{"RT":2376,"time": "2018-08-15 03:29:25pm", "schedule_type": "STATIC", "schedule_name": "random_3", "is_biased_choice":true,"side_choice": "RIGHT", "trial_number":30,"observed_reward":0,"unobserved_reward":0},{"RT":2424,"time": "2018-08-15 03:29:27pm", "schedule_type": "STATIC", "schedule_name": "random_3", "is_biased_choice":true,"side_choice": "RIGHT", "trial_number":31,"observed_reward":0,"unobserved_reward":0},{"RT":2641,"time": "2018-08-15 03:29:30pm", "schedule_type": "STATIC", "schedule_name": "random_3", "is_biased_choice":true,"side_choice": "RIGHT", "trial_number":32,"observed_reward":0,"unobserved_reward":0},{"RT":2215,"time": "2018-08-15 03:29:32pm", "schedule_type": "STATIC", "schedule_name": "random_3", "is_biased_choice":true,"side_choice": "RIGHT", "trial_number":33,"observed_reward":1,"unobserved_reward":0},{"RT":2392,"time": "2018-08-15 03:29:35pm", "schedule_type": "STATIC", "schedule_name": "random_3", "is_biased_choice":true,"side_choice": "RIGHT", "trial_number":34,"observed_reward":0,"unobserved_reward":0},{"RT":2351,"time": "2018-08-15 03:29:37pm", "schedule_type": "STATIC", "schedule_name": "random_3", "is_biased_choice":true,"side_choice": "RIGHT", "trial_number":35,"observed_reward":0,"unobserved_reward":0},{"RT":2768,"time": "2018-08-15 03:29:40pm", "schedule_type": "STATIC", "schedule_name": "random_3", "is_biased_choice":true,"side_choice": "RIGHT", "trial_number":36,"observed_reward":0,"unobserved_reward":1},{"RT":2265,"time": "2018-08-15 03:29:42pm", "schedule_type": "STATIC", "schedule_name": "random_3", "is_biased_choice":true,"side_choice": "RIGHT", "trial_number":37,"observed_reward":0,"unobserved_reward":0},{"RT":2472,"time": "2018-08-15 03:29:45pm", "schedule_type": "STATIC", "schedule_name": "random_3", "is_biased_choice":false,"side_choice": "LEFT", "trial_number":38,"observed_reward":0,"unobserved_reward":0},{"RT":2136,"time": "2018-08-15 03:29:46pm", "schedule_type": "STATIC", "schedule_name": "random_3", "is_biased_choice":true,"side_choice": "RIGHT", "trial_number":39,"observed_reward":0,"unobserved_reward":0},{"RT":2319,"time": "2018-08-15 03:29:49pm", "schedule_type": "STATIC", "schedule_name": "random_3", "is_biased_choice":true,"side_choice": "RIGHT", "trial_number":40,"observed_reward":1,"unobserved_reward":1},{"RT":2160,"time": "2018-08-15 03:29:51pm", "schedule_type": "STATIC", "schedule_name": "random_3", "is_biased_choice":true,"side_choice": "RIGHT", "trial_number":41,"observed_reward":0,"unobserved_reward":0},{"RT":2249,"time": "2018-08-15 03:29:53pm", "schedule_type": "STATIC", "schedule_name": "random_3", "is_biased_choice":true,"side_choice": "RIGHT", "trial_number":42,"observed_reward":0,"unobserved_reward":1},{"RT":2359,"time": "2018-08-15 03:29:55pm", "schedule_type": "STATIC", "schedule_name": "random_3", "is_biased_choice":true,"side_choice": "RIGHT", "trial_number":43,"observed_reward":0,"unobserved_reward":0},{"RT":2320,"time": "2018-08-15 03:29:58pm", "schedule_type": "STATIC", "schedule_name": "random_3", "is_biased_choice":false,"side_choice": "LEFT", "trial_number":44,"observed_reward":0,"unobserved_reward":0},{"RT":2080,"time": "2018-08-15 03:30:00pm", "schedule_type": "STATIC", "schedule_name": "random_3", "is_biased_choice":true,"side_choice": "RIGHT", "trial_number":45,"observed_reward":1,"unobserved_reward":1},{"RT":2311,"time": "2018-08-15 03:30:02pm", "schedule_type": "STATIC", "schedule_name": "random_3", "is_biased_choice":true,"side_choice": "RIGHT", "trial_number":46,"observed_reward":1,"unobserved_reward":1},{"RT":2265,"time": "2018-08-15 03:30:04pm", "schedule_type": "STATIC", "schedule_name": "random_3", "is_biased_choice":true,"side_choice": "RIGHT", "trial_number":47,"observed_reward":0,"unobserved_reward":0},{"RT":2615,"time": "2018-08-15 03:30:07pm", "schedule_type": "STATIC", "schedule_name": "random_3", "is_biased_choice":true,"side_choice": "RIGHT", "trial_number":48,"observed_reward":0,"unobserved_reward":0},{"RT":2738,"time": "2018-08-15 03:30:10pm", "schedule_type": "STATIC", "schedule_name": "random_3", "is_biased_choice":false,"side_choice": "LEFT", "trial_number":49,"observed_reward":0,"unobserved_reward":0},{"RT":4145,"time": "2018-08-15 03:30:14pm", "schedule_type": "STATIC", "schedule_name": "random_3", "is_biased_choice":true,"side_choice": "RIGHT", "trial_number":50,"observed_reward":0,"unobserved_reward":0},{"RT":2760,"time": "2018-08-15 03:30:17pm", "schedule_type": "STATIC", "schedule_name": "random_3", "is_biased_choice":true,"side_choice": "RIGHT", "trial_number":51,"observed_reward":1,"unobserved_reward":0},{"RT":2207,"time": "2018-08-15 03:30:19pm", "schedule_type": "STATIC", "schedule_name": "random_3", "is_biased_choice":true,"side_choice": "RIGHT", "trial_number":52,"observed_reward":0,"unobserved_reward":1},{"RT":2920,"time": "2018-08-15 03:30:22pm", "schedule_type": "STATIC", "schedule_name": "random_3", "is_biased_choice":false,"side_choice": "LEFT", "trial_number":53,"observed_reward":0,"unobserved_reward":0},{"RT":2160,"time": "2018-08-15 03:30:24pm", "schedule_type": "STATIC", "schedule_name": "random_3", "is_biased_choice":true,"side_choice": "RIGHT", "trial_number":54,"observed_reward":0,"unobserved_reward":1},{"RT":45570,"time": "2018-08-15 03:31:10pm", "schedule_type": "STATIC", "schedule_name": "random_3", "is_biased_choice":false,"side_choice": "LEFT", "trial_number":55,"observed_reward":0,"unobserved_reward":0},{"RT":2734,"time": "2018-08-15 03:31:12pm", "schedule_type": "STATIC", "schedule_name": "random_3", "is_biased_choice":false,"side_choice": "LEFT", "trial_number":56,"observed_reward":0,"unobserved_reward":1},{"RT":2401,"time": "2018-08-15 03:31:15pm", "schedule_type": "STATIC", "schedule_name": "random_3", "is_biased_choice":false,"side_choice": "LEFT", "trial_number":57,"observed_reward":0,"unobserved_reward":0},{"RT":2256,"time": "2018-08-15 03:31:17pm", "schedule_type": "STATIC", "schedule_name": "random_3", "is_biased_choice":true,"side_choice": "RIGHT", "trial_number":58,"observed_reward":0,"unobserved_reward":1},{"RT":2408,"time": "2018-08-15 03:31:20pm", "schedule_type": "STATIC", "schedule_name": "random_3", "is_biased_choice":false,"side_choice": "LEFT", "trial_number":59,"observed_reward":1,"unobserved_reward":0},{"RT":2159,"time": "2018-08-15 03:31:22pm", "schedule_type": "STATIC", "schedule_name": "random_3", "is_biased_choice":false,"side_choice": "LEFT", "trial_number":60,"observed_reward":0,"unobserved_reward":0},{"RT":2288,"time": "2018-08-15 03:31:24pm", "schedule_type": "STATIC", "schedule_name": "random_3", "is_biased_choice":true,"side_choice": "RIGHT", "trial_number":61,"observed_reward":0,"unobserved_reward":0},{"RT":2337,"time": "2018-08-15 03:31:26pm", "schedule_type": "STATIC", "schedule_name": "random_3", "is_biased_choice":false,"side_choice": "LEFT", "trial_number":62,"observed_reward":0,"unobserved_reward":0},{"RT":3072,"time": "2018-08-15 03:31:30pm", "schedule_type": "STATIC", "schedule_name": "random_3", "is_biased_choice":true,"side_choice": "RIGHT", "trial_number":63,"observed_reward":1,"unobserved_reward":1},{"RT":2303,"time": "2018-08-15 03:31:32pm", "schedule_type": "STATIC", "schedule_name": "random_3", "is_biased_choice":true,"side_choice": "RIGHT", "trial_number":64,"observed_reward":1,"unobserved_reward":0},{"RT":2432,"time": "2018-08-15 03:31:34pm", "schedule_type": "STATIC", "schedule_name": "random_3", "is_biased_choice":true,"side_choice": "RIGHT", "trial_number":65,"observed_reward":0,"unobserved_reward":1},{"RT":2184,"time": "2018-08-15 03:31:36pm", "schedule_type": "STATIC", "schedule_name": "random_3", "is_biased_choice":true,"side_choice": "RIGHT", "trial_number":66,"observed_reward":0,"unobserved_reward":0},{"RT":2543,"time": "2018-08-15 03:31:39pm", "schedule_type": "STATIC", "schedule_name": "random_3", "is_biased_choice":true,"side_choice": "RIGHT", "trial_number":67,"observed_reward":0,"unobserved_reward":0},{"RT":2369,"time": "2018-08-15 03:31:41pm", "schedule_type": "STATIC", "schedule_name": "random_3", "is_biased_choice":false,"side_choice": "LEFT", "trial_number":68,"observed_reward":1,"unobserved_reward":0},{"RT":2336,"time": "2018-08-15 03:31:44pm", "schedule_type": "STATIC", "schedule_name": "random_3", "is_biased_choice":false,"side_choice": "LEFT", "trial_number":69,"observed_reward":0,"unobserved_reward":0},{"RT":2127,"time": "2018-08-15 03:31:46pm", "schedule_type": "STATIC", "schedule_name": "random_3", "is_biased_choice":true,"side_choice": "RIGHT", "trial_number":70,"observed_reward":0,"unobserved_reward":0},{"RT":2161,"time": "2018-08-15 03:31:48pm", "schedule_type": "STATIC", "schedule_name": "random_3", "is_biased_choice":false,"side_choice": "LEFT", "trial_number":71,"observed_reward":0,"unobserved_reward":1},{"RT":2624,"time": "2018-08-15 03:31:50pm", "schedule_type": "STATIC", "schedule_name": "random_3", "is_biased_choice":true,"side_choice": "RIGHT", "trial_number":72,"observed_reward":0,"unobserved_reward":0},{"RT":2272,"time": "2018-08-15 03:31:53pm", "schedule_type": "STATIC", "schedule_name": "random_3", "is_biased_choice":true,"side_choice": "RIGHT", "trial_number":73,"observed_reward":1,"unobserved_reward":0},{"RT":2431,"time": "2018-08-15 03:31:55pm", "schedule_type": "STATIC", "schedule_name": "random_3", "is_biased_choice":true,"side_choice": "RIGHT", "trial_number":74,"observed_reward":0,"unobserved_reward":0},{"RT":2352,"time": "2018-08-15 03:31:58pm", "schedule_type": "STATIC", "schedule_name": "random_3", "is_biased_choice":true,"side_choice": "RIGHT", "trial_number":75,"observed_reward":1,"unobserved_reward":0},{"RT":2536,"time": "2018-08-15 03:32:00pm", "schedule_type": "STATIC", "schedule_name": "random_3", "is_biased_choice":true,"side_choice": "RIGHT", "trial_number":76,"observed_reward":1,"unobserved_reward":0},{"RT":2800,"time": "2018-08-15 03:32:03pm", "schedule_type": "STATIC", "schedule_name": "random_3", "is_biased_choice":true,"side_choice": "RIGHT", "trial_number":77,"observed_reward":0,"unobserved_reward":0},{"RT":2608,"time": "2018-08-15 03:32:05pm", "schedule_type": "STATIC", "schedule_name": "random_3", "is_biased_choice":false,"side_choice": "LEFT", "trial_number":78,"observed_reward":0,"unobserved_reward":0},{"RT":2264,"time": "2018-08-15 03:32:08pm", "schedule_type": "STATIC", "schedule_name": "random_3", "is_biased_choice":true,"side_choice": "RIGHT", "trial_number":79,"observed_reward":0,"unobserved_reward":0},{"RT":3794,"time": "2018-08-15 03:32:11pm", "schedule_type": "STATIC", "schedule_name": "random_3", "is_biased_choice":true,"side_choice": "RIGHT", "trial_number":80,"observed_reward":0,"unobserved_reward":0},{"RT":2472,"time": "2018-08-15 03:32:14pm", "schedule_type": "STATIC", "schedule_name": "random_3", "is_biased_choice":true,"side_choice": "RIGHT", "trial_number":81,"observed_reward":1,"unobserved_reward":0},{"RT":2360,"time": "2018-08-15 03:32:16pm", "schedule_type": "STATIC", "schedule_name": "random_3", "is_biased_choice":true,"side_choice": "RIGHT", "trial_number":82,"observed_reward":0,"unobserved_reward":1},{"RT":2255,"time": "2018-08-15 03:32:19pm", "schedule_type": "STATIC", "schedule_name": "random_3", "is_biased_choice":false,"side_choice": "LEFT", "trial_number":83,"observed_reward":1,"unobserved_reward":1},{"RT":2416,"time": "2018-08-15 03:32:21pm", "schedule_type": "STATIC", "schedule_name": "random_3", "is_biased_choice":true,"side_choice": "RIGHT", "trial_number":84,"observed_reward":0,"unobserved_reward":0},{"RT":2336,"time": "2018-08-15 03:32:23pm", "schedule_type": "STATIC", "schedule_name": "random_3", "is_biased_choice":false,"side_choice": "LEFT", "trial_number":85,"observed_reward":0,"unobserved_reward":0},{"RT":2832,"time": "2018-08-15 03:32:26pm", "schedule_type": "STATIC", "schedule_name": "random_3", "is_biased_choice":true,"side_choice": "RIGHT", "trial_number":86,"observed_reward":1,"unobserved_reward":0},{"RT":2151,"time": "2018-08-15 03:32:28pm", "schedule_type": "STATIC", "schedule_name": "random_3", "is_biased_choice":true,"side_choice": "RIGHT", "trial_number":87,"observed_reward":0,"unobserved_reward":0},{"RT":2217,"time": "2018-08-15 03:32:30pm", "schedule_type": "STATIC", "schedule_name": "random_3", "is_biased_choice":true,"side_choice": "RIGHT", "trial_number":88,"observed_reward":0,"unobserved_reward":0},{"RT":2311,"time": "2018-08-15 03:32:33pm", "schedule_type": "STATIC", "schedule_name": "random_3", "is_biased_choice":false,"side_choice": "LEFT", "trial_number":89,"observed_reward":1,"unobserved_reward":0},{"RT":2265,"time": "2018-08-15 03:32:35pm", "schedule_type": "STATIC", "schedule_name": "random_3", "is_biased_choice":false,"side_choice": "LEFT", "trial_number":90,"observed_reward":1,"unobserved_reward":0},{"RT":2480,"time": "2018-08-15 03:32:38pm", "schedule_type": "STATIC", "schedule_name": "random_3", "is_biased_choice":false,"side_choice": "LEFT", "trial_number":91,"observed_reward":1,"unobserved_reward":0},{"RT":2631,"time": "2018-08-15 03:32:40pm", "schedule_type": "STATIC", "schedule_name": "random_3", "is_biased_choice":false,"side_choice": "LEFT", "trial_number":92,"observed_reward":1,"unobserved_reward":0},{"RT":2664,"time": "2018-08-15 03:32:43pm", "schedule_type": "STATIC", "schedule_name": "random_3", "is_biased_choice":false,"side_choice": "LEFT", "trial_number":93,"observed_reward":1,"unobserved_reward":0},{"RT":2897,"time": "2018-08-15 03:32:46pm", "schedule_type": "STATIC", "schedule_name": "random_3", "is_biased_choice":false,"side_choice": "LEFT", "trial_number":94,"observed_reward":0,"unobserved_reward":0},{"RT":2191,"time": "2018-08-15 03:32:48pm", "schedule_type": "STATIC", "schedule_name": "random_3", "is_biased_choice":true,"side_choice": "RIGHT", "trial_number":95,"observed_reward":0,"unobserved_reward":0},{"RT":2184,"time": "2018-08-15 03:32:50pm", "schedule_type": "STATIC", "schedule_name": "random_3", "is_biased_choice":false,"side_choice": "LEFT", "trial_number":96,"observed_reward":0,"unobserved_reward":0},{"RT":2624,"time": "2018-08-15 03:32:53pm", "schedule_type": "STATIC", "schedule_name": "random_3", "is_biased_choice":true,"side_choice": "RIGHT", "trial_number":97,"observed_reward":0,"unobserved_reward":0},{"RT":2320,"time": "2018-08-15 03:32:55pm", "schedule_type": "STATIC", "schedule_name": "random_3", "is_biased_choice":false,"side_choice": "LEFT", "trial_number":98,"observed_reward":0,"unobserved_reward":1},