[{"RT":3526,"time": "2018-08-15 06:08:35pm", "schedule_type": "STATIC", "schedule_name": "random_3", "is_biased_choice":false,"side_choice": "LEFT", "trial_number":0,"observed_reward":1,"unobserved_reward":0},{"RT":4055,"time": "2018-08-15 06:08:39pm", "schedule_type": "STATIC", "schedule_name": "random_3", "is_biased_choice":false,"side_choice": "LEFT", "trial_number":1,"observed_reward":0,"unobserved_reward":0},{"RT":3768,"time": "2018-08-15 06:08:43pm", "schedule_type": "STATIC", "schedule_name": "random_3", "is_biased_choice":false,"side_choice": "LEFT", "trial_number":2,"observed_reward":0,"unobserved_reward":0},{"RT":3249,"time": "2018-08-15 06:08:46pm", "schedule_type": "STATIC", "schedule_name": "random_3", "is_biased_choice":true,"side_choice": "RIGHT", "trial_number":3,"observed_reward":0,"unobserved_reward":0},{"RT":3662,"time": "2018-08-15 06:08:49pm", "schedule_type": "STATIC", "schedule_name": "random_3", "is_biased_choice":true,"side_choice": "RIGHT", "trial_number":4,"observed_reward":0,"unobserved_reward":0},{"RT":2825,"time": "2018-08-15 06:08:52pm", "schedule_type": "STATIC", "schedule_name": "random_3", "is_biased_choice":false,"side_choice": "LEFT", "trial_number":5,"observed_reward":0,"unobserved_reward":0},{"RT":3168,"time": "2018-08-15 06:08:55pm", "schedule_type": "STATIC", "schedule_name": "random_3", "is_biased_choice":true,"side_choice": "RIGHT", "trial_number":6,"observed_reward":1,"unobserved_reward":1},{"RT":2712,"time": "2018-08-15 06:08:58pm", "schedule_type": "STATIC", "schedule_name": "random_3", "is_biased_choice":true,"side_choice": "RIGHT", "trial_number":7,"observed_reward":0,"unobserved_reward":0},{"RT":2623,"time": "2018-08-15 06:09:01pm", "schedule_type": "STATIC", "schedule_name": "random_3", "is_biased_choice":false,"side_choice": "LEFT", "trial_number":8,"observed_reward":0,"unobserved_reward":0},{"RT":2985,"time": "2018-08-15 06:09:04pm", "schedule_type": "STATIC", "schedule_name": "random_3", "is_biased_choice":false,"side_choice": "LEFT", "trial_number":9,"observed_reward":0,"unobserved_reward":0},{"RT":2591,"time": "2018-08-15 06:09:06pm", "schedule_type": "STATIC", "schedule_name": "random_3", "is_biased_choice":true,"side_choice": "RIGHT", "trial_number":10,"observed_reward":0,"unobserved_reward":1},{"RT":2393,"time": "2018-08-15 06:09:09pm", "schedule_type": "STATIC", "schedule_name": "random_3", "is_biased_choice":true,"side_choice": "RIGHT", "trial_number":11,"observed_reward":0,"unobserved_reward":1},{"RT":2447,"time": "2018-08-15 06:09:11pm", "schedule_type": "STATIC", "schedule_name": "random_3", "is_biased_choice":true,"side_choice": "RIGHT", "trial_number":12,"observed_reward":1,"unobserved_reward":0},{"RT":2225,"time": "2018-08-15 06:09:13pm", "schedule_type": "STATIC", "schedule_name": "random_3", "is_biased_choice":true,"side_choice": "RIGHT", "trial_number":13,"observed_reward":1,"unobserved_reward":0},{"RT":2575,"time": "2018-08-15 06:09:16pm", "schedule_type": "STATIC", "schedule_name": "random_3", "is_biased_choice":true,"side_choice": "RIGHT", "trial_number":14,"observed_reward":1,"unobserved_reward":1},{"RT":2465,"time": "2018-08-15 06:09:18pm", "schedule_type": "STATIC", "schedule_name": "random_3", "is_biased_choice":true,"side_choice": "RIGHT", "trial_number":15,"observed_reward":0,"unobserved_reward":1},{"RT":2848,"time": "2018-08-15 06:09:21pm", "schedule_type": "STATIC", "schedule_name": "random_3", "is_biased_choice":true,"side_choice": "RIGHT", "trial_number":16,"observed_reward":0,"unobserved_reward":0},{"RT":3487,"time": "2018-08-15 06:09:25pm", "schedule_type": "STATIC", "schedule_name": "random_3", "is_biased_choice":true,"side_choice": "RIGHT", "trial_number":17,"observed_reward":1,"unobserved_reward":0},{"RT":2897,"time": "2018-08-15 06:09:28pm", "schedule_type": "STATIC", "schedule_name": "random_3", "is_biased_choice":true,"side_choice": "RIGHT", "trial_number":18,"observed_reward":1,"unobserved_reward":0},{"RT":2735,"time": "2018-08-15 06:09:30pm", "schedule_type": "STATIC", "schedule_name": "random_3", "is_biased_choice":true,"side_choice": "RIGHT", "trial_number":19,"observed_reward":0,"unobserved_reward":0},{"RT":2905,"time": "2018-08-15 06:09:33pm", "schedule_type": "STATIC", "schedule_name": "random_3", "is_biased_choice":true,"side_choice": "RIGHT", "trial_number":20,"observed_reward":1,"unobserved_reward":0},{"RT":2432,"time": "2018-08-15 06:09:36pm", "schedule_type": "STATIC", "schedule_name": "random_3", "is_biased_choice":true,"side_choice": "RIGHT", "trial_number":21,"observed_reward":0,"unobserved_reward":0},{"RT":4953,"time": "2018-08-15 06:09:41pm", "schedule_type": "STATIC", "schedule_name": "random_3", "is_biased_choice":true,"side_choice": "RIGHT", "trial_number":22,"observed_reward":0,"unobserved_reward":0},{"RT":2726,"time": "2018-08-15 06:09:43pm", "schedule_type": "STATIC", "schedule_name": "random_3", "is_biased_choice":true,"side_choice": "RIGHT", "trial_number":23,"observed_reward":0,"unobserved_reward":0},{"RT":2665,"time": "2018-08-15 06:09:46pm", "schedule_type": "STATIC", "schedule_name": "random_3", "is_biased_choice":true,"side_choice": "RIGHT", "trial_number":24,"observed_reward":0,"unobserved_reward":0},{"RT":2392,"time": "2018-08-15 06:09:48pm", "schedule_type": "STATIC", "schedule_name": "random_3", "is_biased_choice":true,"side_choice": "RIGHT", "trial_number":25,"observed_reward":0,"unobserved_reward":0},{"RT":2648,"time": "2018-08-15 06:09:51pm", "schedule_type": "STATIC", "schedule_name": "random_3", "is_biased_choice":false,"side_choice": "LEFT", "trial_number":26,"observed_reward":0,"unobserved_reward":0},{"RT":2215,"time": "2018-08-15 06:09:53pm", "schedule_type": "STATIC", "schedule_name": "random_3", "is_biased_choice":true,"side_choice": "RIGHT", "trial_number":27,"observed_reward":1,"unobserved_reward":0},{"RT":2465,"time": "2018-08-15 06:09:56pm", "schedule_type": "STATIC", "schedule_name": "random_3", "is_biased_choice":true,"side_choice": "RIGHT", "trial_number":28,"observed_reward":0,"unobserved_reward":0},{"RT":2416,"time": "2018-08-15 06:09:58pm", "schedule_type": "STATIC", "schedule_name": "random_3", "is_biased_choice":false,"side_choice": "LEFT", "trial_number":29,"observed_reward":0,"unobserved_reward":0},{"RT":2416,"time": "2018-08-15 06:10:01pm", "schedule_type": "STATIC", "schedule_name": "random_3", "is_biased_choice":true,"side_choice": "RIGHT", "trial_number":30,"observed_reward":0,"unobserved_reward":0},{"RT":2304,"time": "2018-08-15 06:10:03pm", "schedule_type": "STATIC", "schedule_name": "random_3", "is_biased_choice":false,"side_choice": "LEFT", "trial_number":31,"observed_reward":0,"unobserved_reward":0},{"RT":2296,"time": "2018-08-15 06:10:05pm", "schedule_type": "STATIC", "schedule_name": "random_3", "is_biased_choice":true,"side_choice": "RIGHT", "trial_number":32,"observed_reward":0,"unobserved_reward":0},{"RT":2824,"time": "2018-08-15 06:10:08pm", "schedule_type": "STATIC", "schedule_name": "random_3", "is_biased_choice":true,"side_choice": "RIGHT", "trial_number":33,"observed_reward":1,"unobserved_reward":0},{"RT":2416,"time": "2018-08-15 06:10:10pm", "schedule_type": "STATIC", "schedule_name": "random_3", "is_biased_choice":false,"side_choice": "LEFT", "trial_number":34,"observed_reward":0,"unobserved_reward":0},{"RT":2336,"time": "2018-08-15 06:10:13pm", "schedule_type": "STATIC", "schedule_name": "random_3", "is_biased_choice":false,"side_choice": "LEFT", "trial_number":35,"observed_reward":0,"unobserved_reward":0},{"RT":2711,"time": "2018-08-15 06:10:15pm", "schedule_type": "STATIC", "schedule_name": "random_3", "is_biased_choice":false,"side_choice": "LEFT", "trial_number":36,"observed_reward":1,"unobserved_reward":0},{"RT":2209,"time": "2018-08-15 06:10:18pm", "schedule_type": "STATIC", "schedule_name": "random_3", "is_biased_choice":false,"side_choice": "LEFT", "trial_number":37,"observed_reward":0,"unobserved_reward":0},{"RT":2200,"time": "2018-08-15 06:10:20pm", "schedule_type": "STATIC", "schedule_name": "random_3", "is_biased_choice":false,"side_choice": "LEFT", "trial_number":38,"observed_reward":0,"unobserved_reward":0},{"RT":2376,"time": "2018-08-15 06:10:22pm", "schedule_type": "STATIC", "schedule_name": "random_3", "is_biased_choice":false,"side_choice": "LEFT", "trial_number":39,"observed_reward":0,"unobserved_reward":0},{"RT":2459,"time": "2018-08-15 06:10:25pm", "schedule_type": "STATIC", "schedule_name": "random_3", "is_biased_choice":true,"side_choice": "RIGHT", "trial_number":40,"observed_reward":1,"unobserved_reward":1},{"RT":2197,"time": "2018-08-15 06:10:27pm", "schedule_type": "STATIC", "schedule_name": "random_3", "is_biased_choice":true,"side_choice": "RIGHT", "trial_number":41,"observed_reward":0,"unobserved_reward":0},{"RT":2264,"time": "2018-08-15 06:10:29pm", "schedule_type": "STATIC", "schedule_name": "random_3", "is_biased_choice":true,"side_choice": "RIGHT", "trial_number":42,"observed_reward":0,"unobserved_reward":1},{"RT":2168,"time": "2018-08-15 06:10:31pm", "schedule_type": "STATIC", "schedule_name": "random_3", "is_biased_choice":false,"side_choice": "LEFT", "trial_number":43,"observed_reward":0,"unobserved_reward":0},{"RT":2208,"time": "2018-08-15 06:10:34pm", "schedule_type": "STATIC", "schedule_name": "random_3", "is_biased_choice":false,"side_choice": "LEFT", "trial_number":44,"observed_reward":0,"unobserved_reward":0},{"RT":2224,"time": "2018-08-15 06:10:36pm", "schedule_type": "STATIC", "schedule_name": "random_3", "is_biased_choice":false,"side_choice": "LEFT", "trial_number":45,"observed_reward":1,"unobserved_reward":1},{"RT":2248,"time": "2018-08-15 06:10:38pm", "schedule_type": "STATIC", "schedule_name": "random_3", "is_biased_choice":false,"side_choice": "LEFT", "trial_number":46,"observed_reward":1,"unobserved_reward":1},{"RT":2824,"time": "2018-08-15 06:10:41pm", "schedule_type": "STATIC", "schedule_name": "random_3", "is_biased_choice":false,"side_choice": "LEFT", "trial_number":47,"observed_reward":0,"unobserved_reward":0},{"RT":2775,"time": "2018-08-15 06:10:44pm", "schedule_type": "STATIC", "schedule_name": "random_3", "is_biased_choice":false,"side_choice": "LEFT", "trial_number":48,"observed_reward":0,"unobserved_reward":0},{"RT":2168,"time": "2018-08-15 06:10:46pm", "schedule_type": "STATIC", "schedule_name": "random_3", "is_biased_choice":false,"side_choice": "LEFT", "trial_number":49,"observed_reward":0,"unobserved_reward":0},{"RT":14152,"time": "2018-08-15 06:11:00pm", "schedule_type": "STATIC", "schedule_name": "random_3", "is_biased_choice":false,"side_choice": "LEFT", "trial_number":50,"observed_reward":0,"unobserved_reward":0},{"RT":2808,"time": "2018-08-15 06:11:03pm", "schedule_type": "STATIC", "schedule_name": "random_3", "is_biased_choice":false,"side_choice": "LEFT", "trial_number":51,"observed_reward":0,"unobserved_reward":1},{"RT":3464,"time": "2018-08-15 06:11:06pm", "schedule_type": "STATIC", "schedule_name": "random_3", "is_biased_choice":false,"side_choice": "LEFT", "trial_number":52,"observed_reward":1,"unobserved_reward":0},{"RT":2305,"time": "2018-08-15 06:11:09pm", "schedule_type": "STATIC", "schedule_name": "random_3", "is_biased_choice":false,"side_choice": "LEFT", "trial_number":53,"observed_reward":0,"unobserved_reward":0},{"RT":2992,"time": "2018-08-15 06:11:12pm", "schedule_type": "STATIC", "schedule_name": "random_3", "is_biased_choice":true,"side_choice": "RIGHT", "trial_number":54,"observed_reward":0,"unobserved_reward":1},{"RT":2479,"time": "2018-08-15 06:11:14pm", "schedule_type": "STATIC", "schedule_name": "random_3", "is_biased_choice":true,"side_choice": "RIGHT", "trial_number":55,"observed_reward":0,"unobserved_reward":0},{"RT":2784,"time": "2018-08-15 06:11:17pm", "schedule_type": "STATIC", "schedule_name": "random_3", "is_biased_choice":true,"side_choice": "RIGHT", "trial_number":56,"observed_reward":1,"unobserved_reward":0},{"RT":2352,"time": "2018-08-15 06:11:19pm", "schedule_type": "STATIC", "schedule_name": "random_3", "is_biased_choice":true,"side_choice": "RIGHT", "trial_number":57,"observed_reward":0,"unobserved_reward":0},{"RT":3360,"time": "2018-08-15 06:11:23pm", "schedule_type": "STATIC", "schedule_name": "random_3", "is_biased_choice":true,"side_choice": "RIGHT", "trial_number":58,"observed_reward":0,"unobserved_reward":1},{"RT":2288,"time": "2018-08-15 06:11:25pm", "schedule_type": "STATIC", "schedule_name": "random_3", "is_biased_choice":true,"side_choice": "RIGHT", "trial_number":59,"observed_reward":0,"unobserved_reward":1},{"RT":3712,"time": "2018-08-15 06:11:29pm", "schedule_type": "STATIC", "schedule_name": "random_3", "is_biased_choice":true,"side_choice": "RIGHT", "trial_number":60,"observed_reward":0,"unobserved_reward":0},{"RT":2952,"time": "2018-08-15 06:11:31pm", "schedule_type": "STATIC", "schedule_name": "random_3", "is_biased_choice":true,"side_choice": "RIGHT", "trial_number":61,"observed_reward":0,"unobserved_reward":0},{"RT":3008,"time": "2018-08-15 06:11:34pm", "schedule_type": "STATIC", "schedule_name": "random_3", "is_biased_choice":true,"side_choice": "RIGHT", "trial_number":62,"observed_reward":0,"unobserved_reward":0},{"RT":2761,"time": "2018-08-15 06:11:37pm", "schedule_type": "STATIC", "schedule_name": "random_3", "is_biased_choice":true,"side_choice": "RIGHT", "trial_number":63,"observed_reward":1,"unobserved_reward":1},{"RT":2127,"time": "2018-08-15 06:11:39pm", "schedule_type": "STATIC", "schedule_name": "random_3", "is_biased_choice":true,"side_choice": "RIGHT", "trial_number":64,"observed_reward":1,"unobserved_reward":0},{"RT":2681,"time": "2018-08-15 06:11:42pm", "schedule_type": "STATIC", "schedule_name": "random_3", "is_biased_choice":true,"side_choice": "RIGHT", "trial_number":65,"observed_reward":0,"unobserved_reward":1},{"RT":2968,"time": "2018-08-15 06:11:45pm", "schedule_type": "STATIC", "schedule_name": "random_3", "is_biased_choice":true,"side_choice": "RIGHT", "trial_number":66,"observed_reward":0,"unobserved_reward":0},{"RT":2375,"time": "2018-08-15 06:11:47pm", "schedule_type": "STATIC", "schedule_name": "random_3", "is_biased_choice":false,"side_choice": "LEFT", "trial_number":67,"observed_reward":0,"unobserved_reward":0},{"RT":2187,"time": "2018-08-15 06:11:50pm", "schedule_type": "STATIC", "schedule_name": "random_3", "is_biased_choice":false,"side_choice": "LEFT", "trial_number":68,"observed_reward":1,"unobserved_reward":0},{"RT":2605,"time": "2018-08-15 06:11:52pm", "schedule_type": "STATIC", "schedule_name": "random_3", "is_biased_choice":false,"side_choice": "LEFT", "trial_number":69,"observed_reward":0,"unobserved_reward":0},{"RT":13304,"time": "2018-08-15 06:12:06pm", "schedule_type": "STATIC", "schedule_name": "random_3", "is_biased_choice":false,"side_choice": "LEFT", "trial_number":70,"observed_reward":0,"unobserved_reward":0},{"RT":2568,"time": "2018-08-15 06:12:08pm", "schedule_type": "STATIC", "schedule_name": "random_3", "is_biased_choice":false,"side_choice": "LEFT", "trial_number":71,"observed_reward":0,"unobserved_reward":1},{"RT":2264,"time": "2018-08-15 06:12:10pm", "schedule_type": "STATIC", "schedule_name": "random_3", "is_biased_choice":true,"side_choice": "RIGHT", "trial_number":72,"observed_reward":0,"unobserved_reward":0},{"RT":2504,"time": "2018-08-15 06:12:13pm", "schedule_type": "STATIC", "schedule_name": "random_3", "is_biased_choice":true,"side_choice": "RIGHT", "trial_number":73,"observed_reward":1,"unobserved_reward":0},{"RT":2528,"time": "2018-08-15 06:12:15pm", "schedule_type": "STATIC", "schedule_name": "random_3", "is_biased_choice":true,"side_choice": "RIGHT", "trial_number":74,"observed_reward":0,"unobserved_reward":0},{"RT":2200,"time": "2018-08-15 06:12:18pm", "schedule_type": "STATIC", "schedule_name": "random_3", "is_biased_choice":false,"side_choice": "LEFT", "trial_number":75,"observed_reward":0,"unobserved_reward":1},{"RT":2208,"time": "2018-08-15 06:12:20pm", "schedule_type": "STATIC", "schedule_name": "random_3", "is_biased_choice":false,"side_choice": "LEFT", "trial_number":76,"observed_reward":0,"unobserved_reward":1},{"RT":2568,"time": "2018-08-15 06:12:22pm", "schedule_type": "STATIC", "schedule_name": "random_3", "is_biased_choice":true,"side_choice": "RIGHT", "trial_number":77,"observed_reward":0,"unobserved_reward":0},{"RT":2224,"time": "2018-08-15 06:12:25pm", "schedule_type": "STATIC", "schedule_name": "random_3", "is_biased_choice":true,"side_choice": "RIGHT", "trial_number":78,"observed_reward":0,"unobserved_reward":0},{"RT":2985,"time": "2018-08-15 06:12:28pm", "schedule_type": "STATIC", "schedule_name": "random_3", "is_biased_choice":true,"side_choice": "RIGHT", "trial_number":79,"observed_reward":0,"unobserved_reward":0},{"RT":2496,"time": "2018-08-15 06:12:30pm", "schedule_type": "STATIC", "schedule_name": "random_3", "is_biased_choice":true,"side_choice": "RIGHT", "trial_number":80,"observed_reward":0,"unobserved_reward":0},{"RT":2288,"time": "2018-08-15 06:12:32pm", "schedule_type": "STATIC", "schedule_name": "random_3", "is_biased_choice":false,"side_choice": "LEFT", "trial_number":81,"observed_reward":0,"unobserved_reward":1},{"RT":2167,"time": "2018-08-15 06:12:34pm", "schedule_type": "STATIC", "schedule_name": "random_3", "is_biased_choice":true,"side_choice": "RIGHT", "trial_number":82,"observed_reward":0,"unobserved_reward":1},{"RT":2224,"time": "2018-08-15 06:12:37pm", "schedule_type": "STATIC", "schedule_name": "random_3", "is_biased_choice":false,"side_choice": "LEFT", "trial_number":83,"observed_reward":1,"unobserved_reward":1},{"RT":2856,"time": "2018-08-15 06:12:40pm", "schedule_type": "STATIC", "schedule_name": "random_3", "is_biased_choice":false,"side_choice": "LEFT", "trial_number":84,"observed_reward":0,"unobserved_reward":0},{"RT":2505,"time": "2018-08-15 06:12:42pm", "schedule_type": "STATIC", "schedule_name": "random_3", "is_biased_choice":true,"side_choice": "RIGHT", "trial_number":85,"observed_reward":0,"unobserved_reward":0},{"RT":2488,"time": "2018-08-15 06:12:45pm", "schedule_type": "STATIC", "schedule_name": "random_3", "is_biased_choice":true,"side_choice": "RIGHT", "trial_number":86,"observed_reward":1,"unobserved_reward":0},{"RT":2376,"time": "2018-08-15 06:12:47pm", "schedule_type": "STATIC", "schedule_name": "random_3", "is_biased_choice":true,"side_choice": "RIGHT", "trial_number":87,"observed_reward":0,"unobserved_reward":0},{"RT":2400,"time": "2018-08-15 06:12:49pm", "schedule_type": "STATIC", "schedule_name": "random_3", "is_biased_choice":true,"side_choice": "RIGHT", "trial_number":88,"observed_reward":0,"unobserved_reward":0},{"RT":2336,"time": "2018-08-15 06:12:52pm", "schedule_type": "STATIC", "schedule_name": "random_3", "is_biased_choice":true,"side_choice": "RIGHT", "trial_number":89,"observed_reward":0,"unobserved_reward":1},{"RT":2599,"time": "2018-08-15 06:12:54pm", "schedule_type": "STATIC", "schedule_name": "random_3", "is_biased_choice":true,"side_choice": "RIGHT", "trial_number":90,"observed_reward":0,"unobserved_reward":1},{"RT":2888,"time": "2018-08-15 06:12:57pm", "schedule_type": "STATIC", "schedule_name": "random_3", "is_biased_choice":false,"side_choice": "LEFT", "trial_number":91,"observed_reward":1,"unobserved_reward":0},{"RT":2240,"time": "2018-08-15 06:12:59pm", "schedule_type": "STATIC", "schedule_name": "random_3", "is_biased_choice":false,"side_choice": "LEFT", "trial_number":92,"observed_reward":1,"unobserved_reward":0},{"RT":2241,"time": "2018-08-15 06:13:02pm", "schedule_type": "STATIC", "schedule_name": "random_3", "is_biased_choice":false,"side_choice": "LEFT", "trial_number":93,"observed_reward":1,"unobserved_reward":0},{"RT":2111,"time": "2018-08-15 06:13:04pm", "schedule_type": "STATIC", "schedule_name": "random_3", "is_biased_choice":false,"side_choice": "LEFT", "trial_number":94,"observed_reward":0,"unobserved_reward":0},{"RT":2216,"time": "2018-08-15 06:13:06pm", "schedule_type": "STATIC", "schedule_name": "random_3", "is_biased_choice":false,"side_choice": "LEFT", "trial_number":95,"observed_reward":0,"unobserved_reward":0},{"RT":2400,"time": "2018-08-15 06:13:08pm", "schedule_type": "STATIC", "schedule_name": "random_3", "is_biased_choice":false,"side_choice": "LEFT", "trial_number":96,"observed_reward":0,"unobserved_reward":0},{"RT":2641,"time": "2018-08-15 06:13:11pm", "schedule_type": "STATIC", "schedule_name": "random_3", "is_biased_choice":false,"side_choice": "LEFT", "trial_number":97,"observed_reward":0,"unobserved_reward":0},{"RT":2103,"time": "2018-08-15 06:13:13pm", "schedule_type": "STATIC", "schedule_name": "random_3", "is_biased_choice":false,"side_choice": "LEFT", "trial_number":98,"observed_reward":0,"unobserved_reward":1},{"RT":2696,"time": "2018-08-15 06:13:16pm", "schedule_type": "STATIC", "schedule_name": "random_3", "is_biased_choice":false,"side_choice": "LEFT", "trial_number":99,"observed_reward":0,"unobserved_reward":1},